key_resp.keys,key_resp.rt,key_resp_2.keys,key_resp_2.rt,X Scale,Y Scale,key_resp_3.keys,key_resp_3.rt,Pr_SEQvis1,Pr_NumberOfIntervals,Pr_SEQvis3,Pr_Speed,Pr_Pattern,Pr_Diff,Pr_Color,trials.thisRepN,trials.thisTrialN,trials.thisN,trials.thisIndex,trials.ran,participant,date,expName,psychopyVersion,OS,frameRate,key_resp_4.keys,key_resp_4.rt,key_resp_5.keys,trials_2.thisRepN,trials_2.thisTrialN,trials_2.thisN,trials_2.thisIndex,trials_2.ran,SEQvis1,NumberOfIntervals,SEQvis3,Speed,Pattern,Diff,Color,key_resp_5.rt,key_resp_6.keys,key_resp_6.rt
space,0.9166,space,0.7428,0.05,0.05,space,1.4697,2,"[2,1,1,3,1,1,3,1]",0.5,2,7,2,green,0,0,0,0,1,train57_vistrain2,2024-01-29_17h50.19.985,VisTraining2,2021.2.3,Win32,60.24096386,,,,,,,,,,,,,,,,,,
,,,,,,,,1,"[2,1,1,3,1,1,3,1]",0.25,2,7,2,green,1,0,1,0,1,train57_vistrain2,2024-01-29_17h50.19.985,VisTraining2,2021.2.3,Win32,60.24096386,,,,,,,,,,,,,,,,,,
,,,,,,,,1,"[2,1,1,3,1,1,3,1]",0.25,2,7,2,green,2,0,2,0,1,train57_vistrain2,2024-01-29_17h50.19.985,VisTraining2,2021.2.3,Win32,60.24096386,,,,,,,,,,,,,,,,,,
,,,,,,,,3,"[2,1,1,3,1,1,3,1]",0.75,2,7,2,green,3,0,3,0,1,train57_vistrain2,2024-01-29_17h50.19.985,VisTraining2,2021.2.3,Win32,60.24096386,,,,,,,,,,,,,,,,,,
,,,,,,,,1,"[2,1,1,3,1,1,3,1]",0.25,2,7,2,green,4,0,4,0,1,train57_vistrain2,2024-01-29_17h50.19.985,VisTraining2,2021.2.3,Win32,60.24096386,,,,,,,,,,,,,,,,,,
,,,,,,,,1,"[2,1,1,3,1,1,3,1]",0.25,2,7,2,green,5,0,5,0,1,train57_vistrain2,2024-01-29_17h50.19.985,VisTraining2,2021.2.3,Win32,60.24096386,,,,,,,,,,,,,,,,,,
,,,,,,,,3,"[2,1,1,3,1,1,3,1]",0.75,2,7,2,green,6,0,6,0,1,train57_vistrain2,2024-01-29_17h50.19.985,VisTraining2,2021.2.3,Win32,60.24096386,,,,,,,,,,,,,,,,,,
,,,,,,,,1,"[2,1,1,3,1,1,3,1]",0.25,2,7,2,green,7,0,7,0,1,train57_vistrain2,2024-01-29_17h50.19.985,VisTraining2,2021.2.3,Win32,60.24096386,,,,,,,,,,,,,,,,,,
,,,,,,,,2,"[2,1,1,3,1,3,1,1]",0.5,2,7,2,green,8,0,8,0,1,train57_vistrain2,2024-01-29_17h50.19.985,VisTraining2,2021.2.3,Win32,60.24096386,,,,,,,,,,,,,,,,,,
,,,,,,,,1,"[2,1,1,3,1,3,1,1]",0.25,2,7,2,green,9,0,9,0,1,train57_vistrain2,2024-01-29_17h50.19.985,VisTraining2,2021.2.3,Win32,60.24096386,,,,,,,,,,,,,,,,,,
,,,,,,,,1,"[2,1,1,3,1,3,1,1]",0.25,2,7,2,green,10,0,10,0,1,train57_vistrain2,2024-01-29_17h50.19.985,VisTraining2,2021.2.3,Win32,60.24096386,,,,,,,,,,,,,,,,,,
,,,,,,,,3,"[2,1,1,3,1,3,1,1]",0.75,2,7,2,green,11,0,11,0,1,train57_vistrain2,2024-01-29_17h50.19.985,VisTraining2,2021.2.3,Win32,60.24096386,,,,,,,,,,,,,,,,,,
,,,,,,,,1,"[2,1,1,3,1,3,1,1]",0.25,2,7,2,green,12,0,12,0,1,train57_vistrain2,2024-01-29_17h50.19.985,VisTraining2,2021.2.3,Win32,60.24096386,,,,,,,,,,,,,,,,,,
,,,,,,,,3,"[2,1,1,3,1,3,1,1]",0.75,2,7,2,green,13,0,13,0,1,train57_vistrain2,2024-01-29_17h50.19.985,VisTraining2,2021.2.3,Win32,60.24096386,,,,,,,,,,,,,,,,,,
,,,,,,,,1,"[2,1,1,3,1,3,1,1]",0.25,2,7,2,green,14,0,14,0,1,train57_vistrain2,2024-01-29_17h50.19.985,VisTraining2,2021.2.3,Win32,60.24096386,,,,,,,,,,,,,,,,,,
,,,,,,,,1,"[2,1,1,3,1,3,1,1]",0.25,2,7,2,green,15,0,15,0,1,train57_vistrain2,2024-01-29_17h50.19.985,VisTraining2,2021.2.3,Win32,60.24096386,,,,,,,,,,,,,,,,,,
,,,,,,,,2,"[2,1,1,3,1,1,3,1]",0.5,2,7,2,green,16,0,16,0,1,train57_vistrain2,2024-01-29_17h50.19.985,VisTraining2,2021.2.3,Win32,60.24096386,,,,,,,,,,,,,,,,,,
,,,,,,,,1,"[2,1,1,3,1,1,3,1]",0.25,2,7,2,green,17,0,17,0,1,train57_vistrain2,2024-01-29_17h50.19.985,VisTraining2,2021.2.3,Win32,60.24096386,,,,,,,,,,,,,,,,,,
,,,,,,,,1,"[2,1,1,3,1,1,3,1]",0.25,2,7,2,green,18,0,18,0,1,train57_vistrain2,2024-01-29_17h50.19.985,VisTraining2,2021.2.3,Win32,60.24096386,,,,,,,,,,,,,,,,,,
,,,,,,,,3,"[2,1,1,3,1,1,3,1]",0.75,2,7,2,green,19,0,19,0,1,train57_vistrain2,2024-01-29_17h50.19.985,VisTraining2,2021.2.3,Win32,60.24096386,,,,,,,,,,,,,,,,,,
,,,,,,,,1,"[2,1,1,3,1,1,3,1]",0.25,2,7,2,green,20,0,20,0,1,train57_vistrain2,2024-01-29_17h50.19.985,VisTraining2,2021.2.3,Win32,60.24096386,,,,,,,,,,,,,,,,,,
,,,,,,,,1,"[2,1,1,3,1,1,3,1]",0.25,2,7,2,green,21,0,21,0,1,train57_vistrain2,2024-01-29_17h50.19.985,VisTraining2,2021.2.3,Win32,60.24096386,,,,,,,,,,,,,,,,,,
,,,,,,,,3,"[2,1,1,3,1,1,3,1]",0.75,2,7,2,green,22,0,22,0,1,train57_vistrain2,2024-01-29_17h50.19.985,VisTraining2,2021.2.3,Win32,60.24096386,,,,,,,,,,,,,,,,,,
,,,,,,,,1,"[2,1,1,3,1,1,3,1]",0.25,2,7,2,green,23,0,23,0,1,train57_vistrain2,2024-01-29_17h50.19.985,VisTraining2,2021.2.3,Win32,60.24096386,,,,,,,,,,,,,,,,,,
,,,,,,,,,,,,,,,,,,,,train57_vistrain2,2024-01-29_17h50.19.985,VisTraining2,2021.2.3,Win32,60.24096386,g,0.5831,,0,0,0,0,1,,,,,,,,,,
,,,,,,space,0.9239,,,,,,,,0,0,0,0,1,train57_vistrain2,2024-01-29_17h50.19.985,VisTraining2,2021.2.3,Win32,60.24096386,,,,,,,,,3,"[3,1,2,2,1,3,1]",0.69,1,6,2,black,,,
,,,,,,,,,,,,,,,1,0,1,0,1,train57_vistrain2,2024-01-29_17h50.19.985,VisTraining2,2021.2.3,Win32,60.24096386,,,,,,,,,1,"[3,1,2,2,1,3,1]",0.23,1,6,2,black,,,
,,,,,,,,,,,,,,,2,0,2,0,1,train57_vistrain2,2024-01-29_17h50.19.985,VisTraining2,2021.2.3,Win32,60.24096386,,,,,,,,,2,"[3,1,2,2,1,3,1]",0.46,1,6,2,black,,,
,,,,,,,,,,,,,,,3,0,3,0,1,train57_vistrain2,2024-01-29_17h50.19.985,VisTraining2,2021.2.3,Win32,60.24096386,,,,,,,,,2,"[3,1,2,2,1,3,1]",0.46,1,6,2,black,,,
,,,,,,,,,,,,,,,4,0,4,0,1,train57_vistrain2,2024-01-29_17h50.19.985,VisTraining2,2021.2.3,Win32,60.24096386,,,,,,,,,1,"[3,1,2,2,1,3,1]",0.23,1,6,2,black,,,
,,,,,,,,,,,,,,,5,0,5,0,1,train57_vistrain2,2024-01-29_17h50.19.985,VisTraining2,2021.2.3,Win32,60.24096386,,,,,,,,,3,"[3,1,2,2,1,3,1]",0.69,1,6,2,black,,,
,,,,,,,,,,,,,,,6,0,6,0,1,train57_vistrain2,2024-01-29_17h50.19.985,VisTraining2,2021.2.3,Win32,60.24096386,,,,,,,,,1,"[3,1,2,2,1,3,1]",0.23,1,6,2,black,,,
,,,,,,,,,,,,,,,7,0,7,0,1,train57_vistrain2,2024-01-29_17h50.19.985,VisTraining2,2021.2.3,Win32,60.24096386,,,,,,,,,3,"[3,1,2,2,3,1,1]",0.69,1,6,2,black,,,
,,,,,,,,,,,,,,,8,0,8,0,1,train57_vistrain2,2024-01-29_17h50.19.985,VisTraining2,2021.2.3,Win32,60.24096386,,,,,,,,,1,"[3,1,2,2,3,1,1]",0.23,1,6,2,black,,,
,,,,,,,,,,,,,,,9,0,9,0,1,train57_vistrain2,2024-01-29_17h50.19.985,VisTraining2,2021.2.3,Win32,60.24096386,,,,,,,,,2,"[3,1,2,2,3,1,1]",0.46,1,6,2,black,,,
,,,,,,,,,,,,,,,10,0,10,0,1,train57_vistrain2,2024-01-29_17h50.19.985,VisTraining2,2021.2.3,Win32,60.24096386,,,,,,,,,2,"[3,1,2,2,3,1,1]",0.46,1,6,2,black,,,
,,,,,,,,,,,,,,,11,0,11,0,1,train57_vistrain2,2024-01-29_17h50.19.985,VisTraining2,2021.2.3,Win32,60.24096386,,,,,,,,,3,"[3,1,2,2,3,1,1]",0.69,1,6,2,black,,,
,,,,,,,,,,,,,,,12,0,12,0,1,train57_vistrain2,2024-01-29_17h50.19.985,VisTraining2,2021.2.3,Win32,60.24096386,,,,,,,,,1,"[3,1,2,2,3,1,1]",0.23,1,6,2,black,,,
,,,,,,,,,,,,,,,13,0,13,0,1,train57_vistrain2,2024-01-29_17h50.19.985,VisTraining2,2021.2.3,Win32,60.24096386,,,,,,,,,1,"[3,1,2,2,3,1,1]",0.23,1,6,2,black,,,
,,,,,,,,,,,,,,,14,0,14,0,1,train57_vistrain2,2024-01-29_17h50.19.985,VisTraining2,2021.2.3,Win32,60.24096386,,,,,,,,,3,"[3,1,2,2,1,3,1]",0.69,1,6,2,black,,,
,,,,,,,,,,,,,,,15,0,15,0,1,train57_vistrain2,2024-01-29_17h50.19.985,VisTraining2,2021.2.3,Win32,60.24096386,,,,,,,,,1,"[3,1,2,2,1,3,1]",0.23,1,6,2,black,,,
,,,,,,,,,,,,,,,16,0,16,0,1,train57_vistrain2,2024-01-29_17h50.19.985,VisTraining2,2021.2.3,Win32,60.24096386,,,,,,,,,2,"[3,1,2,2,1,3,1]",0.46,1,6,2,black,,,
,,,,,,,,,,,,,,,17,0,17,0,1,train57_vistrain2,2024-01-29_17h50.19.985,VisTraining2,2021.2.3,Win32,60.24096386,,,,,,,,,2,"[3,1,2,2,1,3,1]",0.46,1,6,2,black,,,
,,,,,,,,,,,,,,,18,0,18,0,1,train57_vistrain2,2024-01-29_17h50.19.985,VisTraining2,2021.2.3,Win32,60.24096386,,,,,,,,,1,"[3,1,2,2,1,3,1]",0.23,1,6,2,black,,,
,,,,,,,,,,,,,,,19,0,19,0,1,train57_vistrain2,2024-01-29_17h50.19.985,VisTraining2,2021.2.3,Win32,60.24096386,,,,,,,,,3,"[3,1,2,2,1,3,1]",0.69,1,6,2,black,,,
,,,,,,,,,,,,,,,20,0,20,0,1,train57_vistrain2,2024-01-29_17h50.19.985,VisTraining2,2021.2.3,Win32,60.24096386,,,,,,,,,1,"[3,1,2,2,1,3,1]",0.23,1,6,2,black,,,
,,,,,,,,,,,,,,,,,,,,train57_vistrain2,2024-01-29_17h50.19.985,VisTraining2,2021.2.3,Win32,60.24096386,,,3,1,0,1,0,1,,,,,,,,0.4346,,
,,,,,,,,,,,,,,,0,0,0,0,1,train57_vistrain2,2024-01-29_17h50.19.985,VisTraining2,2021.2.3,Win32,60.24096386,,,,,,,,,3,"[3,1,1,3,2,2,1]",0.81,3,6,3,black,,,
,,,,,,,,,,,,,,,1,0,1,0,1,train57_vistrain2,2024-01-29_17h50.19.985,VisTraining2,2021.2.3,Win32,60.24096386,,,,,,,,,1,"[3,1,1,3,2,2,1]",0.27,3,6,3,black,,,
,,,,,,,,,,,,,,,2,0,2,0,1,train57_vistrain2,2024-01-29_17h50.19.985,VisTraining2,2021.2.3,Win32,60.24096386,,,,,,,,,1,"[3,1,1,3,2,2,1]",0.27,3,6,3,black,,,
,,,,,,,,,,,,,,,3,0,3,0,1,train57_vistrain2,2024-01-29_17h50.19.985,VisTraining2,2021.2.3,Win32,60.24096386,,,,,,,,,3,"[3,1,1,3,2,2,1]",0.81,3,6,3,black,,,
,,,,,,,,,,,,,,,4,0,4,0,1,train57_vistrain2,2024-01-29_17h50.19.985,VisTraining2,2021.2.3,Win32,60.24096386,,,,,,,,,2,"[3,1,1,3,2,2,1]",0.54,3,6,3,black,,,
,,,,,,,,,,,,,,,5,0,5,0,1,train57_vistrain2,2024-01-29_17h50.19.985,VisTraining2,2021.2.3,Win32,60.24096386,,,,,,,,,2,"[3,1,1,3,2,2,1]",0.54,3,6,3,black,,,
,,,,,,,,,,,,,,,6,0,6,0,1,train57_vistrain2,2024-01-29_17h50.19.985,VisTraining2,2021.2.3,Win32,60.24096386,,,,,,,,,1,"[3,1,1,3,2,2,1]",0.27,3,6,3,black,,,
,,,,,,,,,,,,,,,7,0,7,0,1,train57_vistrain2,2024-01-29_17h50.19.985,VisTraining2,2021.2.3,Win32,60.24096386,,,,,,,,,3,"[3,1,1,3,2,2,1]",0.81,3,6,3,black,,,
,,,,,,,,,,,,,,,8,0,8,0,1,train57_vistrain2,2024-01-29_17h50.19.985,VisTraining2,2021.2.3,Win32,60.24096386,,,,,,,,,1,"[3,1,1,3,2,2,1]",0.27,3,6,3,black,,,
,,,,,,,,,,,,,,,9,0,9,0,1,train57_vistrain2,2024-01-29_17h50.19.985,VisTraining2,2021.2.3,Win32,60.24096386,,,,,,,,,1,"[3,1,1,3,2,2,1]",0.27,3,6,3,black,,,
,,,,,,,,,,,,,,,10,0,10,0,1,train57_vistrain2,2024-01-29_17h50.19.985,VisTraining2,2021.2.3,Win32,60.24096386,,,,,,,,,3,"[3,1,1,3,2,2,1]",0.81,3,6,3,black,,,
,,,,,,,,,,,,,,,11,0,11,0,1,train57_vistrain2,2024-01-29_17h50.19.985,VisTraining2,2021.2.3,Win32,60.24096386,,,,,,,,,2,"[3,1,1,3,2,2,1]",0.54,3,6,3,black,,,
,,,,,,,,,,,,,,,12,0,12,0,1,train57_vistrain2,2024-01-29_17h50.19.985,VisTraining2,2021.2.3,Win32,60.24096386,,,,,,,,,2,"[3,1,1,3,2,2,1]",0.54,3,6,3,black,,,
,,,,,,,,,,,,,,,13,0,13,0,1,train57_vistrain2,2024-01-29_17h50.19.985,VisTraining2,2021.2.3,Win32,60.24096386,,,,,,,,,1,"[3,1,1,3,2,2,1]",0.27,3,6,3,black,,,
,,,,,,,,,,,,,,,14,0,14,0,1,train57_vistrain2,2024-01-29_17h50.19.985,VisTraining2,2021.2.3,Win32,60.24096386,,,,,,,,,3,"[3,1,3,1,2,2,1]",0.81,3,6,3,black,,,
,,,,,,,,,,,,,,,15,0,15,0,1,train57_vistrain2,2024-01-29_17h50.19.985,VisTraining2,2021.2.3,Win32,60.24096386,,,,,,,,,1,"[3,1,3,1,2,2,1]",0.27,3,6,3,black,,,
,,,,,,,,,,,,,,,16,0,16,0,1,train57_vistrain2,2024-01-29_17h50.19.985,VisTraining2,2021.2.3,Win32,60.24096386,,,,,,,,,3,"[3,1,3,1,2,2,1]",0.81,3,6,3,black,,,
,,,,,,,,,,,,,,,17,0,17,0,1,train57_vistrain2,2024-01-29_17h50.19.985,VisTraining2,2021.2.3,Win32,60.24096386,,,,,,,,,1,"[3,1,3,1,2,2,1]",0.27,3,6,3,black,,,
,,,,,,,,,,,,,,,18,0,18,0,1,train57_vistrain2,2024-01-29_17h50.19.985,VisTraining2,2021.2.3,Win32,60.24096386,,,,,,,,,2,"[3,1,3,1,2,2,1]",0.54,3,6,3,black,,,
,,,,,,,,,,,,,,,19,0,19,0,1,train57_vistrain2,2024-01-29_17h50.19.985,VisTraining2,2021.2.3,Win32,60.24096386,,,,,,,,,2,"[3,1,3,1,2,2,1]",0.54,3,6,3,black,,,
,,,,,,,,,,,,,,,20,0,20,0,1,train57_vistrain2,2024-01-29_17h50.19.985,VisTraining2,2021.2.3,Win32,60.24096386,,,,,,,,,1,"[3,1,3,1,2,2,1]",0.27,3,6,3,black,,,
,,,,,,,,,,,,,,,,,,,,train57_vistrain2,2024-01-29_17h50.19.985,VisTraining2,2021.2.3,Win32,60.24096386,,,1,2,0,2,0,1,,,,,,,,0.2355,,
,,,,,,,,,,,,,,,0,0,0,0,1,train57_vistrain2,2024-01-29_17h50.19.985,VisTraining2,2021.2.3,Win32,60.24096386,,,,,,,,,1,"[1,1,2,3,1,2,2,1]",0.27,3,7,3,black,,,
,,,,,,,,,,,,,,,1,0,1,0,1,train57_vistrain2,2024-01-29_17h50.19.985,VisTraining2,2021.2.3,Win32,60.24096386,,,,,,,,,1,"[1,1,2,3,1,2,2,1]",0.27,3,7,3,black,,,
,,,,,,,,,,,,,,,2,0,2,0,1,train57_vistrain2,2024-01-29_17h50.19.985,VisTraining2,2021.2.3,Win32,60.24096386,,,,,,,,,2,"[1,1,2,3,1,2,2,1]",0.54,3,7,3,black,,,
,,,,,,,,,,,,,,,3,0,3,0,1,train57_vistrain2,2024-01-29_17h50.19.985,VisTraining2,2021.2.3,Win32,60.24096386,,,,,,,,,3,"[1,1,2,3,1,2,2,1]",0.81,3,7,3,black,,,
,,,,,,,,,,,,,,,4,0,4,0,1,train57_vistrain2,2024-01-29_17h50.19.985,VisTraining2,2021.2.3,Win32,60.24096386,,,,,,,,,1,"[1,1,2,3,1,2,2,1]",0.27,3,7,3,black,,,
,,,,,,,,,,,,,,,5,0,5,0,1,train57_vistrain2,2024-01-29_17h50.19.985,VisTraining2,2021.2.3,Win32,60.24096386,,,,,,,,,2,"[1,1,2,3,1,2,2,1]",0.54,3,7,3,black,,,
,,,,,,,,,,,,,,,6,0,6,0,1,train57_vistrain2,2024-01-29_17h50.19.985,VisTraining2,2021.2.3,Win32,60.24096386,,,,,,,,,2,"[1,1,2,3,1,2,2,1]",0.54,3,7,3,black,,,
,,,,,,,,,,,,,,,7,0,7,0,1,train57_vistrain2,2024-01-29_17h50.19.985,VisTraining2,2021.2.3,Win32,60.24096386,,,,,,,,,1,"[1,1,2,3,1,2,2,1]",0.27,3,7,3,black,,,
,,,,,,,,,,,,,,,8,0,8,0,1,train57_vistrain2,2024-01-29_17h50.19.985,VisTraining2,2021.2.3,Win32,60.24096386,,,,,,,,,1,"[1,1,2,3,1,2,2,1]",0.27,3,7,3,black,,,
,,,,,,,,,,,,,,,9,0,9,0,1,train57_vistrain2,2024-01-29_17h50.19.985,VisTraining2,2021.2.3,Win32,60.24096386,,,,,,,,,1,"[1,1,2,3,1,2,2,1]",0.27,3,7,3,black,,,
,,,,,,,,,,,,,,,10,0,10,0,1,train57_vistrain2,2024-01-29_17h50.19.985,VisTraining2,2021.2.3,Win32,60.24096386,,,,,,,,,2,"[1,1,2,3,1,2,2,1]",0.54,3,7,3,black,,,
,,,,,,,,,,,,,,,11,0,11,0,1,train57_vistrain2,2024-01-29_17h50.19.985,VisTraining2,2021.2.3,Win32,60.24096386,,,,,,,,,3,"[1,1,2,3,1,2,2,1]",0.81,3,7,3,black,,,
,,,,,,,,,,,,,,,12,0,12,0,1,train57_vistrain2,2024-01-29_17h50.19.985,VisTraining2,2021.2.3,Win32,60.24096386,,,,,,,,,1,"[1,1,2,3,1,2,2,1]",0.27,3,7,3,black,,,
,,,,,,,,,,,,,,,13,0,13,0,1,train57_vistrain2,2024-01-29_17h50.19.985,VisTraining2,2021.2.3,Win32,60.24096386,,,,,,,,,2,"[1,1,2,3,1,2,2,1]",0.54,3,7,3,black,,,
,,,,,,,,,,,,,,,14,0,14,0,1,train57_vistrain2,2024-01-29_17h50.19.985,VisTraining2,2021.2.3,Win32,60.24096386,,,,,,,,,2,"[1,1,2,3,1,2,2,1]",0.54,3,7,3,black,,,
,,,,,,,,,,,,,,,15,0,15,0,1,train57_vistrain2,2024-01-29_17h50.19.985,VisTraining2,2021.2.3,Win32,60.24096386,,,,,,,,,1,"[1,1,2,3,1,2,2,1]",0.27,3,7,3,black,,,
,,,,,,,,,,,,,,,16,0,16,0,1,train57_vistrain2,2024-01-29_17h50.19.985,VisTraining2,2021.2.3,Win32,60.24096386,,,,,,,,,1,"[1,1,2,1,3,2,2,1]",0.27,3,7,3,black,,,
,,,,,,,,,,,,,,,17,0,17,0,1,train57_vistrain2,2024-01-29_17h50.19.985,VisTraining2,2021.2.3,Win32,60.24096386,,,,,,,,,1,"[1,1,2,1,3,2,2,1]",0.27,3,7,3,black,,,
,,,,,,,,,,,,,,,18,0,18,0,1,train57_vistrain2,2024-01-29_17h50.19.985,VisTraining2,2021.2.3,Win32,60.24096386,,,,,,,,,2,"[1,1,2,1,3,2,2,1]",0.54,3,7,3,black,,,
,,,,,,,,,,,,,,,19,0,19,0,1,train57_vistrain2,2024-01-29_17h50.19.985,VisTraining2,2021.2.3,Win32,60.24096386,,,,,,,,,1,"[1,1,2,1,3,2,2,1]",0.27,3,7,3,black,,,
,,,,,,,,,,,,,,,20,0,20,0,1,train57_vistrain2,2024-01-29_17h50.19.985,VisTraining2,2021.2.3,Win32,60.24096386,,,,,,,,,3,"[1,1,2,1,3,2,2,1]",0.81,3,7,3,black,,,
,,,,,,,,,,,,,,,21,0,21,0,1,train57_vistrain2,2024-01-29_17h50.19.985,VisTraining2,2021.2.3,Win32,60.24096386,,,,,,,,,2,"[1,1,2,1,3,2,2,1]",0.54,3,7,3,black,,,
,,,,,,,,,,,,,,,22,0,22,0,1,train57_vistrain2,2024-01-29_17h50.19.985,VisTraining2,2021.2.3,Win32,60.24096386,,,,,,,,,2,"[1,1,2,1,3,2,2,1]",0.54,3,7,3,black,,,
,,,,,,,,,,,,,,,23,0,23,0,1,train57_vistrain2,2024-01-29_17h50.19.985,VisTraining2,2021.2.3,Win32,60.24096386,,,,,,,,,1,"[1,1,2,1,3,2,2,1]",0.27,3,7,3,black,,,
,,,,,,,,,,,,,,,,,,,,train57_vistrain2,2024-01-29_17h50.19.985,VisTraining2,2021.2.3,Win32,60.24096386,,,3,3,0,3,0,1,,,,,,,,0.2782,,
,,,,,,,,,,,,,,,0,0,0,0,1,train57_vistrain2,2024-01-29_17h50.19.985,VisTraining2,2021.2.3,Win32,60.24096386,,,,,,,,,2,"[2,1,1,4,3,1,1]",0.54,3,6,1,black,,,
,,,,,,,,,,,,,,,1,0,1,0,1,train57_vistrain2,2024-01-29_17h50.19.985,VisTraining2,2021.2.3,Win32,60.24096386,,,,,,,,,1,"[2,1,1,4,3,1,1]",0.27,3,6,1,black,,,
,,,,,,,,,,,,,,,2,0,2,0,1,train57_vistrain2,2024-01-29_17h50.19.985,VisTraining2,2021.2.3,Win32,60.24096386,,,,,,,,,1,"[2,1,1,4,3,1,1]",0.27,3,6,1,black,,,
,,,,,,,,,,,,,,,3,0,3,0,1,train57_vistrain2,2024-01-29_17h50.19.985,VisTraining2,2021.2.3,Win32,60.24096386,,,,,,,,,4,"[2,1,1,4,3,1,1]",1.08,3,6,1,black,,,
,,,,,,,,,,,,,,,4,0,4,0,1,train57_vistrain2,2024-01-29_17h50.19.985,VisTraining2,2021.2.3,Win32,60.24096386,,,,,,,,,3,"[2,1,1,4,3,1,1]",0.81,3,6,1,black,,,
,,,,,,,,,,,,,,,5,0,5,0,1,train57_vistrain2,2024-01-29_17h50.19.985,VisTraining2,2021.2.3,Win32,60.24096386,,,,,,,,,1,"[2,1,1,4,3,1,1]",0.27,3,6,1,black,,,
,,,,,,,,,,,,,,,6,0,6,0,1,train57_vistrain2,2024-01-29_17h50.19.985,VisTraining2,2021.2.3,Win32,60.24096386,,,,,,,,,1,"[2,1,1,4,3,1,1]",0.27,3,6,1,black,,,
,,,,,,,,,,,,,,,7,0,7,0,1,train57_vistrain2,2024-01-29_17h50.19.985,VisTraining2,2021.2.3,Win32,60.24096386,,,,,,,,,2,"[2,1,1,4,1,3,1]",0.54,3,6,1,black,,,
,,,,,,,,,,,,,,,8,0,8,0,1,train57_vistrain2,2024-01-29_17h50.19.985,VisTraining2,2021.2.3,Win32,60.24096386,,,,,,,,,1,"[2,1,1,4,1,3,1]",0.27,3,6,1,black,,,
,,,,,,,,,,,,,,,9,0,9,0,1,train57_vistrain2,2024-01-29_17h50.19.985,VisTraining2,2021.2.3,Win32,60.24096386,,,,,,,,,1,"[2,1,1,4,1,3,1]",0.27,3,6,1,black,,,
,,,,,,,,,,,,,,,10,0,10,0,1,train57_vistrain2,2024-01-29_17h50.19.985,VisTraining2,2021.2.3,Win32,60.24096386,,,,,,,,,4,"[2,1,1,4,1,3,1]",1.08,3,6,1,black,,,
,,,,,,,,,,,,,,,11,0,11,0,1,train57_vistrain2,2024-01-29_17h50.19.985,VisTraining2,2021.2.3,Win32,60.24096386,,,,,,,,,1,"[2,1,1,4,1,3,1]",0.27,3,6,1,black,,,
,,,,,,,,,,,,,,,12,0,12,0,1,train57_vistrain2,2024-01-29_17h50.19.985,VisTraining2,2021.2.3,Win32,60.24096386,,,,,,,,,3,"[2,1,1,4,1,3,1]",0.81,3,6,1,black,,,
,,,,,,,,,,,,,,,13,0,13,0,1,train57_vistrain2,2024-01-29_17h50.19.985,VisTraining2,2021.2.3,Win32,60.24096386,,,,,,,,,1,"[2,1,1,4,1,3,1]",0.27,3,6,1,black,,,
,,,,,,,,,,,,,,,14,0,14,0,1,train57_vistrain2,2024-01-29_17h50.19.985,VisTraining2,2021.2.3,Win32,60.24096386,,,,,,,,,2,"[2,1,1,4,1,3,1]",0.54,3,6,1,black,,,
,,,,,,,,,,,,,,,15,0,15,0,1,train57_vistrain2,2024-01-29_17h50.19.985,VisTraining2,2021.2.3,Win32,60.24096386,,,,,,,,,1,"[2,1,1,4,1,3,1]",0.27,3,6,1,black,,,
,,,,,,,,,,,,,,,16,0,16,0,1,train57_vistrain2,2024-01-29_17h50.19.985,VisTraining2,2021.2.3,Win32,60.24096386,,,,,,,,,1,"[2,1,1,4,1,3,1]",0.27,3,6,1,black,,,
,,,,,,,,,,,,,,,17,0,17,0,1,train57_vistrain2,2024-01-29_17h50.19.985,VisTraining2,2021.2.3,Win32,60.24096386,,,,,,,,,4,"[2,1,1,4,1,3,1]",1.08,3,6,1,black,,,
,,,,,,,,,,,,,,,18,0,18,0,1,train57_vistrain2,2024-01-29_17h50.19.985,VisTraining2,2021.2.3,Win32,60.24096386,,,,,,,,,1,"[2,1,1,4,1,3,1]",0.27,3,6,1,black,,,
,,,,,,,,,,,,,,,19,0,19,0,1,train57_vistrain2,2024-01-29_17h50.19.985,VisTraining2,2021.2.3,Win32,60.24096386,,,,,,,,,3,"[2,1,1,4,1,3,1]",0.81,3,6,1,black,,,
,,,,,,,,,,,,,,,20,0,20,0,1,train57_vistrain2,2024-01-29_17h50.19.985,VisTraining2,2021.2.3,Win32,60.24096386,,,,,,,,,1,"[2,1,1,4,1,3,1]",0.27,3,6,1,black,,,
,,,,,,,,,,,,,,,,,,,,train57_vistrain2,2024-01-29_17h50.19.985,VisTraining2,2021.2.3,Win32,60.24096386,,,1,4,0,4,0,1,,,,,,,,0.9902,,
,,,,,,,,,,,,,,,0,0,0,0,1,train57_vistrain2,2024-01-29_17h50.19.985,VisTraining2,2021.2.3,Win32,60.24096386,,,,,,,,,2,"[2,1,1,1,3,4,1]",0.46,1,6,3,black,,,
,,,,,,,,,,,,,,,1,0,1,0,1,train57_vistrain2,2024-01-29_17h50.19.985,VisTraining2,2021.2.3,Win32,60.24096386,,,,,,,,,1,"[2,1,1,1,3,4,1]",0.23,1,6,3,black,,,
,,,,,,,,,,,,,,,2,0,2,0,1,train57_vistrain2,2024-01-29_17h50.19.985,VisTraining2,2021.2.3,Win32,60.24096386,,,,,,,,,1,"[2,1,1,1,3,4,1]",0.23,1,6,3,black,,,
,,,,,,,,,,,,,,,3,0,3,0,1,train57_vistrain2,2024-01-29_17h50.19.985,VisTraining2,2021.2.3,Win32,60.24096386,,,,,,,,,1,"[2,1,1,1,3,4,1]",0.23,1,6,3,black,,,
,,,,,,,,,,,,,,,4,0,4,0,1,train57_vistrain2,2024-01-29_17h50.19.985,VisTraining2,2021.2.3,Win32,60.24096386,,,,,,,,,3,"[2,1,1,1,3,4,1]",0.69,1,6,3,black,,,
,,,,,,,,,,,,,,,5,0,5,0,1,train57_vistrain2,2024-01-29_17h50.19.985,VisTraining2,2021.2.3,Win32,60.24096386,,,,,,,,,4,"[2,1,1,1,3,4,1]",0.92,1,6,3,black,,,
,,,,,,,,,,,,,,,6,0,6,0,1,train57_vistrain2,2024-01-29_17h50.19.985,VisTraining2,2021.2.3,Win32,60.24096386,,,,,,,,,1,"[2,1,1,1,3,4,1]",0.23,1,6,3,black,,,
,,,,,,,,,,,,,,,7,0,7,0,1,train57_vistrain2,2024-01-29_17h50.19.985,VisTraining2,2021.2.3,Win32,60.24096386,,,,,,,,,2,"[2,1,1,1,3,4,1]",0.46,1,6,3,black,,,
,,,,,,,,,,,,,,,8,0,8,0,1,train57_vistrain2,2024-01-29_17h50.19.985,VisTraining2,2021.2.3,Win32,60.24096386,,,,,,,,,1,"[2,1,1,1,3,4,1]",0.23,1,6,3,black,,,
,,,,,,,,,,,,,,,9,0,9,0,1,train57_vistrain2,2024-01-29_17h50.19.985,VisTraining2,2021.2.3,Win32,60.24096386,,,,,,,,,1,"[2,1,1,1,3,4,1]",0.23,1,6,3,black,,,
,,,,,,,,,,,,,,,10,0,10,0,1,train57_vistrain2,2024-01-29_17h50.19.985,VisTraining2,2021.2.3,Win32,60.24096386,,,,,,,,,1,"[2,1,1,1,3,4,1]",0.23,1,6,3,black,,,
,,,,,,,,,,,,,,,11,0,11,0,1,train57_vistrain2,2024-01-29_17h50.19.985,VisTraining2,2021.2.3,Win32,60.24096386,,,,,,,,,3,"[2,1,1,1,3,4,1]",0.69,1,6,3,black,,,
,,,,,,,,,,,,,,,12,0,12,0,1,train57_vistrain2,2024-01-29_17h50.19.985,VisTraining2,2021.2.3,Win32,60.24096386,,,,,,,,,4,"[2,1,1,1,3,4,1]",0.92,1,6,3,black,,,
,,,,,,,,,,,,,,,13,0,13,0,1,train57_vistrain2,2024-01-29_17h50.19.985,VisTraining2,2021.2.3,Win32,60.24096386,,,,,,,,,1,"[2,1,1,1,3,4,1]",0.23,1,6,3,black,,,
,,,,,,,,,,,,,,,14,0,14,0,1,train57_vistrain2,2024-01-29_17h50.19.985,VisTraining2,2021.2.3,Win32,60.24096386,,,,,,,,,2,"[2,1,1,3,1,4,1]",0.46,1,6,3,black,,,
,,,,,,,,,,,,,,,15,0,15,0,1,train57_vistrain2,2024-01-29_17h50.19.985,VisTraining2,2021.2.3,Win32,60.24096386,,,,,,,,,1,"[2,1,1,3,1,4,1]",0.23,1,6,3,black,,,
,,,,,,,,,,,,,,,16,0,16,0,1,train57_vistrain2,2024-01-29_17h50.19.985,VisTraining2,2021.2.3,Win32,60.24096386,,,,,,,,,1,"[2,1,1,3,1,4,1]",0.23,1,6,3,black,,,
,,,,,,,,,,,,,,,17,0,17,0,1,train57_vistrain2,2024-01-29_17h50.19.985,VisTraining2,2021.2.3,Win32,60.24096386,,,,,,,,,3,"[2,1,1,3,1,4,1]",0.69,1,6,3,black,,,
,,,,,,,,,,,,,,,18,0,18,0,1,train57_vistrain2,2024-01-29_17h50.19.985,VisTraining2,2021.2.3,Win32,60.24096386,,,,,,,,,1,"[2,1,1,3,1,4,1]",0.23,1,6,3,black,,,
,,,,,,,,,,,,,,,19,0,19,0,1,train57_vistrain2,2024-01-29_17h50.19.985,VisTraining2,2021.2.3,Win32,60.24096386,,,,,,,,,4,"[2,1,1,3,1,4,1]",0.92,1,6,3,black,,,
,,,,,,,,,,,,,,,20,0,20,0,1,train57_vistrain2,2024-01-29_17h50.19.985,VisTraining2,2021.2.3,Win32,60.24096386,,,,,,,,,1,"[2,1,1,3,1,4,1]",0.23,1,6,3,black,,,
,,,,,,,,,,,,,,,,,,,,train57_vistrain2,2024-01-29_17h50.19.985,VisTraining2,2021.2.3,Win32,60.24096386,,,3,5,0,5,0,1,,,,,,,,6.0346,,
,,,,,,,,,,,,,,,0,0,0,0,1,train57_vistrain2,2024-01-29_17h50.19.985,VisTraining2,2021.2.3,Win32,60.24096386,,,,,,,,,3,"[3,1,4,1,3,1]",0.81,3,5,3,black,,,
,,,,,,,,,,,,,,,1,0,1,0,1,train57_vistrain2,2024-01-29_17h50.19.985,VisTraining2,2021.2.3,Win32,60.24096386,,,,,,,,,1,"[3,1,4,1,3,1]",0.27,3,5,3,black,,,
,,,,,,,,,,,,,,,2,0,2,0,1,train57_vistrain2,2024-01-29_17h50.19.985,VisTraining2,2021.2.3,Win32,60.24096386,,,,,,,,,4,"[3,1,4,1,3,1]",1.08,3,5,3,black,,,
,,,,,,,,,,,,,,,3,0,3,0,1,train57_vistrain2,2024-01-29_17h50.19.985,VisTraining2,2021.2.3,Win32,60.24096386,,,,,,,,,1,"[3,1,4,1,3,1]",0.27,3,5,3,black,,,
,,,,,,,,,,,,,,,4,0,4,0,1,train57_vistrain2,2024-01-29_17h50.19.985,VisTraining2,2021.2.3,Win32,60.24096386,,,,,,,,,3,"[3,1,4,1,3,1]",0.81,3,5,3,black,,,
,,,,,,,,,,,,,,,5,0,5,0,1,train57_vistrain2,2024-01-29_17h50.19.985,VisTraining2,2021.2.3,Win32,60.24096386,,,,,,,,,1,"[3,1,4,1,3,1]",0.27,3,5,3,black,,,
,,,,,,,,,,,,,,,6,0,6,0,1,train57_vistrain2,2024-01-29_17h50.19.985,VisTraining2,2021.2.3,Win32,60.24096386,,,,,,,,,3,"[3,1,4,1,3,1]",0.81,3,5,3,black,,,
,,,,,,,,,,,,,,,7,0,7,0,1,train57_vistrain2,2024-01-29_17h50.19.985,VisTraining2,2021.2.3,Win32,60.24096386,,,,,,,,,1,"[3,1,4,1,3,1]",0.27,3,5,3,black,,,
,,,,,,,,,,,,,,,8,0,8,0,1,train57_vistrain2,2024-01-29_17h50.19.985,VisTraining2,2021.2.3,Win32,60.24096386,,,,,,,,,4,"[3,1,4,1,3,1]",1.08,3,5,3,black,,,
,,,,,,,,,,,,,,,9,0,9,0,1,train57_vistrain2,2024-01-29_17h50.19.985,VisTraining2,2021.2.3,Win32,60.24096386,,,,,,,,,1,"[3,1,4,1,3,1]",0.27,3,5,3,black,,,
,,,,,,,,,,,,,,,10,0,10,0,1,train57_vistrain2,2024-01-29_17h50.19.985,VisTraining2,2021.2.3,Win32,60.24096386,,,,,,,,,3,"[3,1,4,1,3,1]",0.81,3,5,3,black,,,
,,,,,,,,,,,,,,,11,0,11,0,1,train57_vistrain2,2024-01-29_17h50.19.985,VisTraining2,2021.2.3,Win32,60.24096386,,,,,,,,,1,"[3,1,4,1,3,1]",0.27,3,5,3,black,,,
,,,,,,,,,,,,,,,12,0,12,0,1,train57_vistrain2,2024-01-29_17h50.19.985,VisTraining2,2021.2.3,Win32,60.24096386,,,,,,,,,3,"[3,1,4,3,1,1]",0.81,3,5,3,black,,,
,,,,,,,,,,,,,,,13,0,13,0,1,train57_vistrain2,2024-01-29_17h50.19.985,VisTraining2,2021.2.3,Win32,60.24096386,,,,,,,,,1,"[3,1,4,3,1,1]",0.27,3,5,3,black,,,
,,,,,,,,,,,,,,,14,0,14,0,1,train57_vistrain2,2024-01-29_17h50.19.985,VisTraining2,2021.2.3,Win32,60.24096386,,,,,,,,,4,"[3,1,4,3,1,1]",1.08,3,5,3,black,,,
,,,,,,,,,,,,,,,15,0,15,0,1,train57_vistrain2,2024-01-29_17h50.19.985,VisTraining2,2021.2.3,Win32,60.24096386,,,,,,,,,3,"[3,1,4,3,1,1]",0.81,3,5,3,black,,,
,,,,,,,,,,,,,,,16,0,16,0,1,train57_vistrain2,2024-01-29_17h50.19.985,VisTraining2,2021.2.3,Win32,60.24096386,,,,,,,,,1,"[3,1,4,3,1,1]",0.27,3,5,3,black,,,
,,,,,,,,,,,,,,,17,0,17,0,1,train57_vistrain2,2024-01-29_17h50.19.985,VisTraining2,2021.2.3,Win32,60.24096386,,,,,,,,,1,"[3,1,4,3,1,1]",0.27,3,5,3,black,,,
,,,,,,,,,,,,,,,,,,,,train57_vistrain2,2024-01-29_17h50.19.985,VisTraining2,2021.2.3,Win32,60.24096386,,,3,6,0,6,0,1,,,,,,,,0.3342,,
,,,,,,,,,,,,,,,0,0,0,0,1,train57_vistrain2,2024-01-29_17h50.19.985,VisTraining2,2021.2.3,Win32,60.24096386,,,,,,,,,2,"[2,1,1,2,2,3,1,1]",0.5,2,7,3,black,,,
,,,,,,,,,,,,,,,1,0,1,0,1,train57_vistrain2,2024-01-29_17h50.19.985,VisTraining2,2021.2.3,Win32,60.24096386,,,,,,,,,1,"[2,1,1,2,2,3,1,1]",0.25,2,7,3,black,,,
,,,,,,,,,,,,,,,2,0,2,0,1,train57_vistrain2,2024-01-29_17h50.19.985,VisTraining2,2021.2.3,Win32,60.24096386,,,,,,,,,1,"[2,1,1,2,2,3,1,1]",0.25,2,7,3,black,,,
,,,,,,,,,,,,,,,3,0,3,0,1,train57_vistrain2,2024-01-29_17h50.19.985,VisTraining2,2021.2.3,Win32,60.24096386,,,,,,,,,2,"[2,1,1,2,2,3,1,1]",0.5,2,7,3,black,,,
,,,,,,,,,,,,,,,4,0,4,0,1,train57_vistrain2,2024-01-29_17h50.19.985,VisTraining2,2021.2.3,Win32,60.24096386,,,,,,,,,2,"[2,1,1,2,2,3,1,1]",0.5,2,7,3,black,,,
,,,,,,,,,,,,,,,5,0,5,0,1,train57_vistrain2,2024-01-29_17h50.19.985,VisTraining2,2021.2.3,Win32,60.24096386,,,,,,,,,3,"[2,1,1,2,2,3,1,1]",0.75,2,7,3,black,,,
,,,,,,,,,,,,,,,6,0,6,0,1,train57_vistrain2,2024-01-29_17h50.19.985,VisTraining2,2021.2.3,Win32,60.24096386,,,,,,,,,1,"[2,1,1,2,2,3,1,1]",0.25,2,7,3,black,,,
,,,,,,,,,,,,,,,7,0,7,0,1,train57_vistrain2,2024-01-29_17h50.19.985,VisTraining2,2021.2.3,Win32,60.24096386,,,,,,,,,1,"[2,1,1,2,2,3,1,1]",0.25,2,7,3,black,,,
,,,,,,,,,,,,,,,8,0,8,0,1,train57_vistrain2,2024-01-29_17h50.19.985,VisTraining2,2021.2.3,Win32,60.24096386,,,,,,,,,2,"[2,1,1,2,2,3,1,1]",0.5,2,7,3,black,,,
,,,,,,,,,,,,,,,9,0,9,0,1,train57_vistrain2,2024-01-29_17h50.19.985,VisTraining2,2021.2.3,Win32,60.24096386,,,,,,,,,1,"[2,1,1,2,2,3,1,1]",0.25,2,7,3,black,,,
,,,,,,,,,,,,,,,10,0,10,0,1,train57_vistrain2,2024-01-29_17h50.19.985,VisTraining2,2021.2.3,Win32,60.24096386,,,,,,,,,1,"[2,1,1,2,2,3,1,1]",0.25,2,7,3,black,,,
,,,,,,,,,,,,,,,11,0,11,0,1,train57_vistrain2,2024-01-29_17h50.19.985,VisTraining2,2021.2.3,Win32,60.24096386,,,,,,,,,2,"[2,1,1,2,2,3,1,1]",0.5,2,7,3,black,,,
,,,,,,,,,,,,,,,12,0,12,0,1,train57_vistrain2,2024-01-29_17h50.19.985,VisTraining2,2021.2.3,Win32,60.24096386,,,,,,,,,2,"[2,1,1,2,2,3,1,1]",0.5,2,7,3,black,,,
,,,,,,,,,,,,,,,13,0,13,0,1,train57_vistrain2,2024-01-29_17h50.19.985,VisTraining2,2021.2.3,Win32,60.24096386,,,,,,,,,3,"[2,1,1,2,2,3,1,1]",0.75,2,7,3,black,,,
,,,,,,,,,,,,,,,14,0,14,0,1,train57_vistrain2,2024-01-29_17h50.19.985,VisTraining2,2021.2.3,Win32,60.24096386,,,,,,,,,1,"[2,1,1,2,2,3,1,1]",0.25,2,7,3,black,,,
,,,,,,,,,,,,,,,15,0,15,0,1,train57_vistrain2,2024-01-29_17h50.19.985,VisTraining2,2021.2.3,Win32,60.24096386,,,,,,,,,1,"[2,1,1,2,2,3,1,1]",0.25,2,7,3,black,,,
,,,,,,,,,,,,,,,16,0,16,0,1,train57_vistrain2,2024-01-29_17h50.19.985,VisTraining2,2021.2.3,Win32,60.24096386,,,,,,,,,2,"[2,1,1,2,2,1,3,1]",0.5,2,7,3,black,,,
,,,,,,,,,,,,,,,17,0,17,0,1,train57_vistrain2,2024-01-29_17h50.19.985,VisTraining2,2021.2.3,Win32,60.24096386,,,,,,,,,1,"[2,1,1,2,2,1,3,1]",0.25,2,7,3,black,,,
,,,,,,,,,,,,,,,18,0,18,0,1,train57_vistrain2,2024-01-29_17h50.19.985,VisTraining2,2021.2.3,Win32,60.24096386,,,,,,,,,1,"[2,1,1,2,2,1,3,1]",0.25,2,7,3,black,,,
,,,,,,,,,,,,,,,19,0,19,0,1,train57_vistrain2,2024-01-29_17h50.19.985,VisTraining2,2021.2.3,Win32,60.24096386,,,,,,,,,2,"[2,1,1,2,2,1,3,1]",0.5,2,7,3,black,,,
,,,,,,,,,,,,,,,20,0,20,0,1,train57_vistrain2,2024-01-29_17h50.19.985,VisTraining2,2021.2.3,Win32,60.24096386,,,,,,,,,2,"[2,1,1,2,2,1,3,1]",0.5,2,7,3,black,,,
,,,,,,,,,,,,,,,21,0,21,0,1,train57_vistrain2,2024-01-29_17h50.19.985,VisTraining2,2021.2.3,Win32,60.24096386,,,,,,,,,1,"[2,1,1,2,2,1,3,1]",0.25,2,7,3,black,,,
,,,,,,,,,,,,,,,22,0,22,0,1,train57_vistrain2,2024-01-29_17h50.19.985,VisTraining2,2021.2.3,Win32,60.24096386,,,,,,,,,3,"[2,1,1,2,2,1,3,1]",0.75,2,7,3,black,,,
,,,,,,,,,,,,,,,23,0,23,0,1,train57_vistrain2,2024-01-29_17h50.19.985,VisTraining2,2021.2.3,Win32,60.24096386,,,,,,,,,1,"[2,1,1,2,2,1,3,1]",0.25,2,7,3,black,,,
,,,,,,,,,,,,,,,,,,,,train57_vistrain2,2024-01-29_17h50.19.985,VisTraining2,2021.2.3,Win32,60.24096386,,,1,7,0,7,0,1,,,,,,,,0.1974,,
,,,,,,,,,,,,,,,0,0,0,0,1,train57_vistrain2,2024-01-29_17h50.19.985,VisTraining2,2021.2.3,Win32,60.24096386,,,,,,,,,3,"[3,1,4,2,2,1]",0.81,3,5,2,black,,,
,,,,,,,,,,,,,,,1,0,1,0,1,train57_vistrain2,2024-01-29_17h50.19.985,VisTraining2,2021.2.3,Win32,60.24096386,,,,,,,,,1,"[3,1,4,2,2,1]",0.27,3,5,2,black,,,
,,,,,,,,,,,,,,,2,0,2,0,1,train57_vistrain2,2024-01-29_17h50.19.985,VisTraining2,2021.2.3,Win32,60.24096386,,,,,,,,,4,"[3,1,4,2,2,1]",1.08,3,5,2,black,,,
,,,,,,,,,,,,,,,3,0,3,0,1,train57_vistrain2,2024-01-29_17h50.19.985,VisTraining2,2021.2.3,Win32,60.24096386,,,,,,,,,2,"[3,1,4,2,2,1]",0.54,3,5,2,black,,,
,,,,,,,,,,,,,,,4,0,4,0,1,train57_vistrain2,2024-01-29_17h50.19.985,VisTraining2,2021.2.3,Win32,60.24096386,,,,,,,,,2,"[3,1,4,2,2,1]",0.54,3,5,2,black,,,
,,,,,,,,,,,,,,,5,0,5,0,1,train57_vistrain2,2024-01-29_17h50.19.985,VisTraining2,2021.2.3,Win32,60.24096386,,,,,,,,,1,"[3,1,4,2,2,1]",0.27,3,5,2,black,,,
,,,,,,,,,,,,,,,6,0,6,0,1,train57_vistrain2,2024-01-29_17h50.19.985,VisTraining2,2021.2.3,Win32,60.24096386,,,,,,,,,1,"[1,3,4,2,2,1]",0.27,3,5,2,black,,,
,,,,,,,,,,,,,,,7,0,7,0,1,train57_vistrain2,2024-01-29_17h50.19.985,VisTraining2,2021.2.3,Win32,60.24096386,,,,,,,,,3,"[1,3,4,2,2,1]",0.81,3,5,2,black,,,
,,,,,,,,,,,,,,,8,0,8,0,1,train57_vistrain2,2024-01-29_17h50.19.985,VisTraining2,2021.2.3,Win32,60.24096386,,,,,,,,,4,"[1,3,4,2,2,1]",1.08,3,5,2,black,,,
,,,,,,,,,,,,,,,9,0,9,0,1,train57_vistrain2,2024-01-29_17h50.19.985,VisTraining2,2021.2.3,Win32,60.24096386,,,,,,,,,2,"[1,3,4,2,2,1]",0.54,3,5,2,black,,,
,,,,,,,,,,,,,,,10,0,10,0,1,train57_vistrain2,2024-01-29_17h50.19.985,VisTraining2,2021.2.3,Win32,60.24096386,,,,,,,,,2,"[1,3,4,2,2,1]",0.54,3,5,2,black,,,
,,,,,,,,,,,,,,,11,0,11,0,1,train57_vistrain2,2024-01-29_17h50.19.985,VisTraining2,2021.2.3,Win32,60.24096386,,,,,,,,,1,"[1,3,4,2,2,1]",0.27,3,5,2,black,,,
,,,,,,,,,,,,,,,12,0,12,0,1,train57_vistrain2,2024-01-29_17h50.19.985,VisTraining2,2021.2.3,Win32,60.24096386,,,,,,,,,3,"[3,1,4,2,2,1]",0.81,3,5,2,black,,,
,,,,,,,,,,,,,,,13,0,13,0,1,train57_vistrain2,2024-01-29_17h50.19.985,VisTraining2,2021.2.3,Win32,60.24096386,,,,,,,,,1,"[3,1,4,2,2,1]",0.27,3,5,2,black,,,
,,,,,,,,,,,,,,,14,0,14,0,1,train57_vistrain2,2024-01-29_17h50.19.985,VisTraining2,2021.2.3,Win32,60.24096386,,,,,,,,,4,"[3,1,4,2,2,1]",1.08,3,5,2,black,,,
,,,,,,,,,,,,,,,15,0,15,0,1,train57_vistrain2,2024-01-29_17h50.19.985,VisTraining2,2021.2.3,Win32,60.24096386,,,,,,,,,2,"[3,1,4,2,2,1]",0.54,3,5,2,black,,,
,,,,,,,,,,,,,,,16,0,16,0,1,train57_vistrain2,2024-01-29_17h50.19.985,VisTraining2,2021.2.3,Win32,60.24096386,,,,,,,,,2,"[3,1,4,2,2,1]",0.54,3,5,2,black,,,
,,,,,,,,,,,,,,,17,0,17,0,1,train57_vistrain2,2024-01-29_17h50.19.985,VisTraining2,2021.2.3,Win32,60.24096386,,,,,,,,,1,"[3,1,4,2,2,1]",0.27,3,5,2,black,,,
,,,,,,,,,,,,,,,,,,,,train57_vistrain2,2024-01-29_17h50.19.985,VisTraining2,2021.2.3,Win32,60.24096386,,,2,8,0,8,0,1,,,,,,,,0.1304,,
,,,,,,,,,,,,,,,0,0,0,0,1,train57_vistrain2,2024-01-29_17h50.19.985,VisTraining2,2021.2.3,Win32,60.24096386,,,,,,,,,4,"[4,2,2,1,1,2,1]",1,2,6,2,black,,,
,,,,,,,,,,,,,,,1,0,1,0,1,train57_vistrain2,2024-01-29_17h50.19.985,VisTraining2,2021.2.3,Win32,60.24096386,,,,,,,,,2,"[4,2,2,1,1,2,1]",0.5,2,6,2,black,,,
,,,,,,,,,,,,,,,2,0,2,0,1,train57_vistrain2,2024-01-29_17h50.19.985,VisTraining2,2021.2.3,Win32,60.24096386,,,,,,,,,2,"[4,2,2,1,1,2,1]",0.5,2,6,2,black,,,
,,,,,,,,,,,,,,,3,0,3,0,1,train57_vistrain2,2024-01-29_17h50.19.985,VisTraining2,2021.2.3,Win32,60.24096386,,,,,,,,,1,"[4,2,2,1,1,2,1]",0.25,2,6,2,black,,,
,,,,,,,,,,,,,,,4,0,4,0,1,train57_vistrain2,2024-01-29_17h50.19.985,VisTraining2,2021.2.3,Win32,60.24096386,,,,,,,,,1,"[4,2,2,1,1,2,1]",0.25,2,6,2,black,,,
,,,,,,,,,,,,,,,5,0,5,0,1,train57_vistrain2,2024-01-29_17h50.19.985,VisTraining2,2021.2.3,Win32,60.24096386,,,,,,,,,2,"[4,2,2,1,1,2,1]",0.5,2,6,2,black,,,
,,,,,,,,,,,,,,,6,0,6,0,1,train57_vistrain2,2024-01-29_17h50.19.985,VisTraining2,2021.2.3,Win32,60.24096386,,,,,,,,,1,"[4,2,2,1,1,2,1]",0.25,2,6,2,black,,,
,,,,,,,,,,,,,,,7,0,7,0,1,train57_vistrain2,2024-01-29_17h50.19.985,VisTraining2,2021.2.3,Win32,60.24096386,,,,,,,,,4,"[4,2,2,2,1,1,1]",1,2,6,2,black,,,
,,,,,,,,,,,,,,,8,0,8,0,1,train57_vistrain2,2024-01-29_17h50.19.985,VisTraining2,2021.2.3,Win32,60.24096386,,,,,,,,,2,"[4,2,2,2,1,1,1]",0.5,2,6,2,black,,,
,,,,,,,,,,,,,,,9,0,9,0,1,train57_vistrain2,2024-01-29_17h50.19.985,VisTraining2,2021.2.3,Win32,60.24096386,,,,,,,,,2,"[4,2,2,2,1,1,1]",0.5,2,6,2,black,,,
,,,,,,,,,,,,,,,10,0,10,0,1,train57_vistrain2,2024-01-29_17h50.19.985,VisTraining2,2021.2.3,Win32,60.24096386,,,,,,,,,2,"[4,2,2,2,1,1,1]",0.5,2,6,2,black,,,
,,,,,,,,,,,,,,,11,0,11,0,1,train57_vistrain2,2024-01-29_17h50.19.985,VisTraining2,2021.2.3,Win32,60.24096386,,,,,,,,,1,"[4,2,2,2,1,1,1]",0.25,2,6,2,black,,,
,,,,,,,,,,,,,,,12,0,12,0,1,train57_vistrain2,2024-01-29_17h50.19.985,VisTraining2,2021.2.3,Win32,60.24096386,,,,,,,,,1,"[4,2,2,2,1,1,1]",0.25,2,6,2,black,,,
,,,,,,,,,,,,,,,13,0,13,0,1,train57_vistrain2,2024-01-29_17h50.19.985,VisTraining2,2021.2.3,Win32,60.24096386,,,,,,,,,1,"[4,2,2,2,1,1,1]",0.25,2,6,2,black,,,
,,,,,,,,,,,,,,,14,0,14,0,1,train57_vistrain2,2024-01-29_17h50.19.985,VisTraining2,2021.2.3,Win32,60.24096386,,,,,,,,,4,"[4,2,2,1,1,2,1]",1,2,6,2,black,,,
,,,,,,,,,,,,,,,15,0,15,0,1,train57_vistrain2,2024-01-29_17h50.19.985,VisTraining2,2021.2.3,Win32,60.24096386,,,,,,,,,2,"[4,2,2,1,1,2,1]",0.5,2,6,2,black,,,
,,,,,,,,,,,,,,,16,0,16,0,1,train57_vistrain2,2024-01-29_17h50.19.985,VisTraining2,2021.2.3,Win32,60.24096386,,,,,,,,,2,"[4,2,2,1,1,2,1]",0.5,2,6,2,black,,,
,,,,,,,,,,,,,,,17,0,17,0,1,train57_vistrain2,2024-01-29_17h50.19.985,VisTraining2,2021.2.3,Win32,60.24096386,,,,,,,,,1,"[4,2,2,1,1,2,1]",0.25,2,6,2,black,,,
,,,,,,,,,,,,,,,18,0,18,0,1,train57_vistrain2,2024-01-29_17h50.19.985,VisTraining2,2021.2.3,Win32,60.24096386,,,,,,,,,1,"[4,2,2,1,1,2,1]",0.25,2,6,2,black,,,
,,,,,,,,,,,,,,,19,0,19,0,1,train57_vistrain2,2024-01-29_17h50.19.985,VisTraining2,2021.2.3,Win32,60.24096386,,,,,,,,,2,"[4,2,2,1,1,2,1]",0.5,2,6,2,black,,,
,,,,,,,,,,,,,,,20,0,20,0,1,train57_vistrain2,2024-01-29_17h50.19.985,VisTraining2,2021.2.3,Win32,60.24096386,,,,,,,,,1,"[4,2,2,1,1,2,1]",0.25,2,6,2,black,,,
,,,,,,,,,,,,,,,,,,,,train57_vistrain2,2024-01-29_17h50.19.985,VisTraining2,2021.2.3,Win32,60.24096386,,,3,9,0,9,0,1,,,,,,,,0.2994,,
,,,,,,,,,,,,,,,0,0,0,0,1,train57_vistrain2,2024-01-29_17h50.19.985,VisTraining2,2021.2.3,Win32,60.24096386,,,,,,,,,1,"[1,1,2,2,1,1,4,1]",0.27,3,7,2,black,,,
,,,,,,,,,,,,,,,1,0,1,0,1,train57_vistrain2,2024-01-29_17h50.19.985,VisTraining2,2021.2.3,Win32,60.24096386,,,,,,,,,1,"[1,1,2,2,1,1,4,1]",0.27,3,7,2,black,,,
,,,,,,,,,,,,,,,2,0,2,0,1,train57_vistrain2,2024-01-29_17h50.19.985,VisTraining2,2021.2.3,Win32,60.24096386,,,,,,,,,2,"[1,1,2,2,1,1,4,1]",0.54,3,7,2,black,,,
,,,,,,,,,,,,,,,3,0,3,0,1,train57_vistrain2,2024-01-29_17h50.19.985,VisTraining2,2021.2.3,Win32,60.24096386,,,,,,,,,2,"[1,1,2,2,1,1,4,1]",0.54,3,7,2,black,,,
,,,,,,,,,,,,,,,4,0,4,0,1,train57_vistrain2,2024-01-29_17h50.19.985,VisTraining2,2021.2.3,Win32,60.24096386,,,,,,,,,1,"[1,1,2,2,1,1,4,1]",0.27,3,7,2,black,,,
,,,,,,,,,,,,,,,5,0,5,0,1,train57_vistrain2,2024-01-29_17h50.19.985,VisTraining2,2021.2.3,Win32,60.24096386,,,,,,,,,1,"[1,1,2,2,1,1,4,1]",0.27,3,7,2,black,,,
,,,,,,,,,,,,,,,6,0,6,0,1,train57_vistrain2,2024-01-29_17h50.19.985,VisTraining2,2021.2.3,Win32,60.24096386,,,,,,,,,4,"[1,1,2,2,1,1,4,1]",1.08,3,7,2,black,,,
,,,,,,,,,,,,,,,7,0,7,0,1,train57_vistrain2,2024-01-29_17h50.19.985,VisTraining2,2021.2.3,Win32,60.24096386,,,,,,,,,1,"[1,1,2,2,1,1,4,1]",0.27,3,7,2,black,,,
,,,,,,,,,,,,,,,8,0,8,0,1,train57_vistrain2,2024-01-29_17h50.19.985,VisTraining2,2021.2.3,Win32,60.24096386,,,,,,,,,1,"[1,1,2,1,1,2,4,1]",0.27,3,7,2,black,,,
,,,,,,,,,,,,,,,9,0,9,0,1,train57_vistrain2,2024-01-29_17h50.19.985,VisTraining2,2021.2.3,Win32,60.24096386,,,,,,,,,1,"[1,1,2,1,1,2,4,1]",0.27,3,7,2,black,,,
,,,,,,,,,,,,,,,10,0,10,0,1,train57_vistrain2,2024-01-29_17h50.19.985,VisTraining2,2021.2.3,Win32,60.24096386,,,,,,,,,2,"[1,1,2,1,1,2,4,1]",0.54,3,7,2,black,,,
,,,,,,,,,,,,,,,11,0,11,0,1,train57_vistrain2,2024-01-29_17h50.19.985,VisTraining2,2021.2.3,Win32,60.24096386,,,,,,,,,1,"[1,1,2,1,1,2,4,1]",0.27,3,7,2,black,,,
,,,,,,,,,,,,,,,12,0,12,0,1,train57_vistrain2,2024-01-29_17h50.19.985,VisTraining2,2021.2.3,Win32,60.24096386,,,,,,,,,1,"[1,1,2,1,1,2,4,1]",0.27,3,7,2,black,,,
,,,,,,,,,,,,,,,13,0,13,0,1,train57_vistrain2,2024-01-29_17h50.19.985,VisTraining2,2021.2.3,Win32,60.24096386,,,,,,,,,2,"[1,1,2,1,1,2,4,1]",0.54,3,7,2,black,,,
,,,,,,,,,,,,,,,14,0,14,0,1,train57_vistrain2,2024-01-29_17h50.19.985,VisTraining2,2021.2.3,Win32,60.24096386,,,,,,,,,4,"[1,1,2,1,1,2,4,1]",1.08,3,7,2,black,,,
,,,,,,,,,,,,,,,15,0,15,0,1,train57_vistrain2,2024-01-29_17h50.19.985,VisTraining2,2021.2.3,Win32,60.24096386,,,,,,,,,1,"[1,1,2,1,1,2,4,1]",0.27,3,7,2,black,,,
,,,,,,,,,,,,,,,16,0,16,0,1,train57_vistrain2,2024-01-29_17h50.19.985,VisTraining2,2021.2.3,Win32,60.24096386,,,,,,,,,1,"[1,1,2,2,1,1,4,1]",0.27,3,7,2,black,,,
,,,,,,,,,,,,,,,17,0,17,0,1,train57_vistrain2,2024-01-29_17h50.19.985,VisTraining2,2021.2.3,Win32,60.24096386,,,,,,,,,1,"[1,1,2,2,1,1,4,1]",0.27,3,7,2,black,,,
,,,,,,,,,,,,,,,18,0,18,0,1,train57_vistrain2,2024-01-29_17h50.19.985,VisTraining2,2021.2.3,Win32,60.24096386,,,,,,,,,2,"[1,1,2,2,1,1,4,1]",0.54,3,7,2,black,,,
,,,,,,,,,,,,,,,19,0,19,0,1,train57_vistrain2,2024-01-29_17h50.19.985,VisTraining2,2021.2.3,Win32,60.24096386,,,,,,,,,2,"[1,1,2,2,1,1,4,1]",0.54,3,7,2,black,,,
,,,,,,,,,,,,,,,20,0,20,0,1,train57_vistrain2,2024-01-29_17h50.19.985,VisTraining2,2021.2.3,Win32,60.24096386,,,,,,,,,1,"[1,1,2,2,1,1,4,1]",0.27,3,7,2,black,,,
,,,,,,,,,,,,,,,21,0,21,0,1,train57_vistrain2,2024-01-29_17h50.19.985,VisTraining2,2021.2.3,Win32,60.24096386,,,,,,,,,1,"[1,1,2,2,1,1,4,1]",0.27,3,7,2,black,,,
,,,,,,,,,,,,,,,22,0,22,0,1,train57_vistrain2,2024-01-29_17h50.19.985,VisTraining2,2021.2.3,Win32,60.24096386,,,,,,,,,4,"[1,1,2,2,1,1,4,1]",1.08,3,7,2,black,,,
,,,,,,,,,,,,,,,23,0,23,0,1,train57_vistrain2,2024-01-29_17h50.19.985,VisTraining2,2021.2.3,Win32,60.24096386,,,,,,,,,1,"[1,1,2,2,1,1,4,1]",0.27,3,7,2,black,,,
,,,,,,,,,,,,,,,,,,,,train57_vistrain2,2024-01-29_17h50.19.985,VisTraining2,2021.2.3,Win32,60.24096386,,,1,10,0,10,0,1,,,,,,,,0.2536,,
,,,,,,,,,,,,,,,0,0,0,0,1,train57_vistrain2,2024-01-29_17h50.19.985,VisTraining2,2021.2.3,Win32,60.24096386,,,,,,,,,3,"[3,1,2,2,1,1,2,1]",0.75,2,7,3,black,,,
,,,,,,,,,,,,,,,1,0,1,0,1,train57_vistrain2,2024-01-29_17h50.19.985,VisTraining2,2021.2.3,Win32,60.24096386,,,,,,,,,1,"[3,1,2,2,1,1,2,1]",0.25,2,7,3,black,,,
,,,,,,,,,,,,,,,2,0,2,0,1,train57_vistrain2,2024-01-29_17h50.19.985,VisTraining2,2021.2.3,Win32,60.24096386,,,,,,,,,2,"[3,1,2,2,1,1,2,1]",0.5,2,7,3,black,,,
,,,,,,,,,,,,,,,3,0,3,0,1,train57_vistrain2,2024-01-29_17h50.19.985,VisTraining2,2021.2.3,Win32,60.24096386,,,,,,,,,2,"[3,1,2,2,1,1,2,1]",0.5,2,7,3,black,,,
,,,,,,,,,,,,,,,4,0,4,0,1,train57_vistrain2,2024-01-29_17h50.19.985,VisTraining2,2021.2.3,Win32,60.24096386,,,,,,,,,1,"[3,1,2,2,1,1,2,1]",0.25,2,7,3,black,,,
,,,,,,,,,,,,,,,5,0,5,0,1,train57_vistrain2,2024-01-29_17h50.19.985,VisTraining2,2021.2.3,Win32,60.24096386,,,,,,,,,1,"[3,1,2,2,1,1,2,1]",0.25,2,7,3,black,,,
,,,,,,,,,,,,,,,6,0,6,0,1,train57_vistrain2,2024-01-29_17h50.19.985,VisTraining2,2021.2.3,Win32,60.24096386,,,,,,,,,2,"[3,1,2,2,1,1,2,1]",0.5,2,7,3,black,,,
,,,,,,,,,,,,,,,7,0,7,0,1,train57_vistrain2,2024-01-29_17h50.19.985,VisTraining2,2021.2.3,Win32,60.24096386,,,,,,,,,1,"[3,1,2,2,1,1,2,1]",0.25,2,7,3,black,,,
,,,,,,,,,,,,,,,8,0,8,0,1,train57_vistrain2,2024-01-29_17h50.19.985,VisTraining2,2021.2.3,Win32,60.24096386,,,,,,,,,3,"[3,1,2,2,1,1,2,1]",0.75,2,7,3,black,,,
,,,,,,,,,,,,,,,9,0,9,0,1,train57_vistrain2,2024-01-29_17h50.19.985,VisTraining2,2021.2.3,Win32,60.24096386,,,,,,,,,1,"[3,1,2,2,1,1,2,1]",0.25,2,7,3,black,,,
,,,,,,,,,,,,,,,10,0,10,0,1,train57_vistrain2,2024-01-29_17h50.19.985,VisTraining2,2021.2.3,Win32,60.24096386,,,,,,,,,2,"[3,1,2,2,1,1,2,1]",0.5,2,7,3,black,,,
,,,,,,,,,,,,,,,11,0,11,0,1,train57_vistrain2,2024-01-29_17h50.19.985,VisTraining2,2021.2.3,Win32,60.24096386,,,,,,,,,2,"[3,1,2,2,1,1,2,1]",0.5,2,7,3,black,,,
,,,,,,,,,,,,,,,12,0,12,0,1,train57_vistrain2,2024-01-29_17h50.19.985,VisTraining2,2021.2.3,Win32,60.24096386,,,,,,,,,1,"[3,1,2,2,1,1,2,1]",0.25,2,7,3,black,,,
,,,,,,,,,,,,,,,13,0,13,0,1,train57_vistrain2,2024-01-29_17h50.19.985,VisTraining2,2021.2.3,Win32,60.24096386,,,,,,,,,1,"[3,1,2,2,1,1,2,1]",0.25,2,7,3,black,,,
,,,,,,,,,,,,,,,14,0,14,0,1,train57_vistrain2,2024-01-29_17h50.19.985,VisTraining2,2021.2.3,Win32,60.24096386,,,,,,,,,2,"[3,1,2,2,1,1,2,1]",0.5,2,7,3,black,,,
,,,,,,,,,,,,,,,15,0,15,0,1,train57_vistrain2,2024-01-29_17h50.19.985,VisTraining2,2021.2.3,Win32,60.24096386,,,,,,,,,1,"[3,1,2,2,1,1,2,1]",0.25,2,7,3,black,,,
,,,,,,,,,,,,,,,16,0,16,0,1,train57_vistrain2,2024-01-29_17h50.19.985,VisTraining2,2021.2.3,Win32,60.24096386,,,,,,,,,1,"[1,3,2,2,1,1,2,1]",0.25,2,7,3,black,,,
,,,,,,,,,,,,,,,17,0,17,0,1,train57_vistrain2,2024-01-29_17h50.19.985,VisTraining2,2021.2.3,Win32,60.24096386,,,,,,,,,3,"[1,3,2,2,1,1,2,1]",0.75,2,7,3,black,,,
,,,,,,,,,,,,,,,18,0,18,0,1,train57_vistrain2,2024-01-29_17h50.19.985,VisTraining2,2021.2.3,Win32,60.24096386,,,,,,,,,2,"[1,3,2,2,1,1,2,1]",0.5,2,7,3,black,,,
,,,,,,,,,,,,,,,19,0,19,0,1,train57_vistrain2,2024-01-29_17h50.19.985,VisTraining2,2021.2.3,Win32,60.24096386,,,,,,,,,2,"[1,3,2,2,1,1,2,1]",0.5,2,7,3,black,,,
,,,,,,,,,,,,,,,20,0,20,0,1,train57_vistrain2,2024-01-29_17h50.19.985,VisTraining2,2021.2.3,Win32,60.24096386,,,,,,,,,1,"[1,3,2,2,1,1,2,1]",0.25,2,7,3,black,,,
,,,,,,,,,,,,,,,21,0,21,0,1,train57_vistrain2,2024-01-29_17h50.19.985,VisTraining2,2021.2.3,Win32,60.24096386,,,,,,,,,1,"[1,3,2,2,1,1,2,1]",0.25,2,7,3,black,,,
,,,,,,,,,,,,,,,22,0,22,0,1,train57_vistrain2,2024-01-29_17h50.19.985,VisTraining2,2021.2.3,Win32,60.24096386,,,,,,,,,2,"[1,3,2,2,1,1,2,1]",0.5,2,7,3,black,,,
,,,,,,,,,,,,,,,23,0,23,0,1,train57_vistrain2,2024-01-29_17h50.19.985,VisTraining2,2021.2.3,Win32,60.24096386,,,,,,,,,1,"[1,3,2,2,1,1,2,1]",0.25,2,7,3,black,,,
,,,,,,,,,,,,,,,,,,,,train57_vistrain2,2024-01-29_17h50.19.985,VisTraining2,2021.2.3,Win32,60.24096386,,,1,11,0,11,0,1,,,,,,,,0.2491,,
,,,,,,,,,,,,,,,0,0,0,0,1,train57_vistrain2,2024-01-29_17h50.19.985,VisTraining2,2021.2.3,Win32,60.24096386,,,,,,,,,2,"[2,2,4,1,3,1]",0.54,3,5,3,green,,,
,,,,,,,,,,,,,,,1,0,1,0,1,train57_vistrain2,2024-01-29_17h50.19.985,VisTraining2,2021.2.3,Win32,60.24096386,,,,,,,,,2,"[2,2,4,1,3,1]",0.54,3,5,3,green,,,
,,,,,,,,,,,,,,,2,0,2,0,1,train57_vistrain2,2024-01-29_17h50.19.985,VisTraining2,2021.2.3,Win32,60.24096386,,,,,,,,,4,"[2,2,4,1,3,1]",1.08,3,5,3,green,,,
,,,,,,,,,,,,,,,3,0,3,0,1,train57_vistrain2,2024-01-29_17h50.19.985,VisTraining2,2021.2.3,Win32,60.24096386,,,,,,,,,1,"[2,2,4,1,3,1]",0.27,3,5,3,green,,,
,,,,,,,,,,,,,,,4,0,4,0,1,train57_vistrain2,2024-01-29_17h50.19.985,VisTraining2,2021.2.3,Win32,60.24096386,,,,,,,,,3,"[2,2,4,1,3,1]",0.81,3,5,3,green,,,
,,,,,,,,,,,,,,,5,0,5,0,1,train57_vistrain2,2024-01-29_17h50.19.985,VisTraining2,2021.2.3,Win32,60.24096386,,,,,,,,,1,"[2,2,4,1,3,1]",0.27,3,5,3,green,,,
,,,,,,,,,,,,,,,6,0,6,0,1,train57_vistrain2,2024-01-29_17h50.19.985,VisTraining2,2021.2.3,Win32,60.24096386,,,,,,,,,2,"[2,2,4,1,3,1]",0.54,3,5,3,green,,,
,,,,,,,,,,,,,,,7,0,7,0,1,train57_vistrain2,2024-01-29_17h50.19.985,VisTraining2,2021.2.3,Win32,60.24096386,,,,,,,,,2,"[2,2,4,1,3,1]",0.54,3,5,3,green,,,
,,,,,,,,,,,,,,,8,0,8,0,1,train57_vistrain2,2024-01-29_17h50.19.985,VisTraining2,2021.2.3,Win32,60.24096386,,,,,,,,,4,"[2,2,4,1,3,1]",1.08,3,5,3,green,,,
,,,,,,,,,,,,,,,9,0,9,0,1,train57_vistrain2,2024-01-29_17h50.19.985,VisTraining2,2021.2.3,Win32,60.24096386,,,,,,,,,1,"[2,2,4,1,3,1]",0.27,3,5,3,green,,,
,,,,,,,,,,,,,,,10,0,10,0,1,train57_vistrain2,2024-01-29_17h50.19.985,VisTraining2,2021.2.3,Win32,60.24096386,,,,,,,,,3,"[2,2,4,1,3,1]",0.81,3,5,3,green,,,
,,,,,,,,,,,,,,,11,0,11,0,1,train57_vistrain2,2024-01-29_17h50.19.985,VisTraining2,2021.2.3,Win32,60.24096386,,,,,,,,,1,"[2,2,4,1,3,1]",0.27,3,5,3,green,,,
,,,,,,,,,,,,,,,12,0,12,0,1,train57_vistrain2,2024-01-29_17h50.19.985,VisTraining2,2021.2.3,Win32,60.24096386,,,,,,,,,2,"[2,2,4,3,1,1]",0.54,3,5,3,green,,,
,,,,,,,,,,,,,,,13,0,13,0,1,train57_vistrain2,2024-01-29_17h50.19.985,VisTraining2,2021.2.3,Win32,60.24096386,,,,,,,,,2,"[2,2,4,3,1,1]",0.54,3,5,3,green,,,
,,,,,,,,,,,,,,,14,0,14,0,1,train57_vistrain2,2024-01-29_17h50.19.985,VisTraining2,2021.2.3,Win32,60.24096386,,,,,,,,,4,"[2,2,4,3,1,1]",1.08,3,5,3,green,,,
,,,,,,,,,,,,,,,15,0,15,0,1,train57_vistrain2,2024-01-29_17h50.19.985,VisTraining2,2021.2.3,Win32,60.24096386,,,,,,,,,3,"[2,2,4,3,1,1]",0.81,3,5,3,green,,,
,,,,,,,,,,,,,,,16,0,16,0,1,train57_vistrain2,2024-01-29_17h50.19.985,VisTraining2,2021.2.3,Win32,60.24096386,,,,,,,,,1,"[2,2,4,3,1,1]",0.27,3,5,3,green,,,
,,,,,,,,,,,,,,,17,0,17,0,1,train57_vistrain2,2024-01-29_17h50.19.985,VisTraining2,2021.2.3,Win32,60.24096386,,,,,,,,,1,"[2,2,4,3,1,1]",0.27,3,5,3,green,,,
,,,,,,,,,,,,,,,,,,,,train57_vistrain2,2024-01-29_17h50.19.985,VisTraining2,2021.2.3,Win32,60.24096386,,,g,12,0,12,0,1,,,,,,,,15.485,,
,,,,,,,,,,,,,,,0,0,0,0,1,train57_vistrain2,2024-01-29_17h50.19.985,VisTraining2,2021.2.3,Win32,60.24096386,,,,,,,,,3,"[3,1,2,1,1,3,1,1]",0.75,2,7,1,black,,,
,,,,,,,,,,,,,,,1,0,1,0,1,train57_vistrain2,2024-01-29_17h50.19.985,VisTraining2,2021.2.3,Win32,60.24096386,,,,,,,,,1,"[3,1,2,1,1,3,1,1]",0.25,2,7,1,black,,,
,,,,,,,,,,,,,,,2,0,2,0,1,train57_vistrain2,2024-01-29_17h50.19.985,VisTraining2,2021.2.3,Win32,60.24096386,,,,,,,,,2,"[3,1,2,1,1,3,1,1]",0.5,2,7,1,black,,,
,,,,,,,,,,,,,,,3,0,3,0,1,train57_vistrain2,2024-01-29_17h50.19.985,VisTraining2,2021.2.3,Win32,60.24096386,,,,,,,,,1,"[3,1,2,1,1,3,1,1]",0.25,2,7,1,black,,,
,,,,,,,,,,,,,,,4,0,4,0,1,train57_vistrain2,2024-01-29_17h50.19.985,VisTraining2,2021.2.3,Win32,60.24096386,,,,,,,,,1,"[3,1,2,1,1,3,1,1]",0.25,2,7,1,black,,,
,,,,,,,,,,,,,,,5,0,5,0,1,train57_vistrain2,2024-01-29_17h50.19.985,VisTraining2,2021.2.3,Win32,60.24096386,,,,,,,,,3,"[3,1,2,1,1,3,1,1]",0.75,2,7,1,black,,,
,,,,,,,,,,,,,,,6,0,6,0,1,train57_vistrain2,2024-01-29_17h50.19.985,VisTraining2,2021.2.3,Win32,60.24096386,,,,,,,,,1,"[3,1,2,1,1,3,1,1]",0.25,2,7,1,black,,,
,,,,,,,,,,,,,,,7,0,7,0,1,train57_vistrain2,2024-01-29_17h50.19.985,VisTraining2,2021.2.3,Win32,60.24096386,,,,,,,,,1,"[3,1,2,1,1,3,1,1]",0.25,2,7,1,black,,,
,,,,,,,,,,,,,,,8,0,8,0,1,train57_vistrain2,2024-01-29_17h50.19.985,VisTraining2,2021.2.3,Win32,60.24096386,,,,,,,,,3,"[3,1,2,1,1,1,3,1]",0.75,2,7,1,black,,,
,,,,,,,,,,,,,,,9,0,9,0,1,train57_vistrain2,2024-01-29_17h50.19.985,VisTraining2,2021.2.3,Win32,60.24096386,,,,,,,,,1,"[3,1,2,1,1,1,3,1]",0.25,2,7,1,black,,,
,,,,,,,,,,,,,,,10,0,10,0,1,train57_vistrain2,2024-01-29_17h50.19.985,VisTraining2,2021.2.3,Win32,60.24096386,,,,,,,,,2,"[3,1,2,1,1,1,3,1]",0.5,2,7,1,black,,,
,,,,,,,,,,,,,,,11,0,11,0,1,train57_vistrain2,2024-01-29_17h50.19.985,VisTraining2,2021.2.3,Win32,60.24096386,,,,,,,,,1,"[3,1,2,1,1,1,3,1]",0.25,2,7,1,black,,,
,,,,,,,,,,,,,,,12,0,12,0,1,train57_vistrain2,2024-01-29_17h50.19.985,VisTraining2,2021.2.3,Win32,60.24096386,,,,,,,,,1,"[3,1,2,1,1,1,3,1]",0.25,2,7,1,black,,,
,,,,,,,,,,,,,,,13,0,13,0,1,train57_vistrain2,2024-01-29_17h50.19.985,VisTraining2,2021.2.3,Win32,60.24096386,,,,,,,,,1,"[3,1,2,1,1,1,3,1]",0.25,2,7,1,black,,,
,,,,,,,,,,,,,,,14,0,14,0,1,train57_vistrain2,2024-01-29_17h50.19.985,VisTraining2,2021.2.3,Win32,60.24096386,,,,,,,,,3,"[3,1,2,1,1,1,3,1]",0.75,2,7,1,black,,,
,,,,,,,,,,,,,,,15,0,15,0,1,train57_vistrain2,2024-01-29_17h50.19.985,VisTraining2,2021.2.3,Win32,60.24096386,,,,,,,,,1,"[3,1,2,1,1,1,3,1]",0.25,2,7,1,black,,,
,,,,,,,,,,,,,,,16,0,16,0,1,train57_vistrain2,2024-01-29_17h50.19.985,VisTraining2,2021.2.3,Win32,60.24096386,,,,,,,,,3,"[3,1,2,1,1,1,3,1]",0.75,2,7,1,black,,,
,,,,,,,,,,,,,,,17,0,17,0,1,train57_vistrain2,2024-01-29_17h50.19.985,VisTraining2,2021.2.3,Win32,60.24096386,,,,,,,,,1,"[3,1,2,1,1,1,3,1]",0.25,2,7,1,black,,,
,,,,,,,,,,,,,,,18,0,18,0,1,train57_vistrain2,2024-01-29_17h50.19.985,VisTraining2,2021.2.3,Win32,60.24096386,,,,,,,,,2,"[3,1,2,1,1,1,3,1]",0.5,2,7,1,black,,,
,,,,,,,,,,,,,,,19,0,19,0,1,train57_vistrain2,2024-01-29_17h50.19.985,VisTraining2,2021.2.3,Win32,60.24096386,,,,,,,,,1,"[3,1,2,1,1,1,3,1]",0.25,2,7,1,black,,,
,,,,,,,,,,,,,,,20,0,20,0,1,train57_vistrain2,2024-01-29_17h50.19.985,VisTraining2,2021.2.3,Win32,60.24096386,,,,,,,,,1,"[3,1,2,1,1,1,3,1]",0.25,2,7,1,black,,,
,,,,,,,,,,,,,,,21,0,21,0,1,train57_vistrain2,2024-01-29_17h50.19.985,VisTraining2,2021.2.3,Win32,60.24096386,,,,,,,,,1,"[3,1,2,1,1,1,3,1]",0.25,2,7,1,black,,,
,,,,,,,,,,,,,,,22,0,22,0,1,train57_vistrain2,2024-01-29_17h50.19.985,VisTraining2,2021.2.3,Win32,60.24096386,,,,,,,,,3,"[3,1,2,1,1,1,3,1]",0.75,2,7,1,black,,,
,,,,,,,,,,,,,,,23,0,23,0,1,train57_vistrain2,2024-01-29_17h50.19.985,VisTraining2,2021.2.3,Win32,60.24096386,,,,,,,,,1,"[3,1,2,1,1,1,3,1]",0.25,2,7,1,black,,,
,,,,,,,,,,,,,,,,,,,,train57_vistrain2,2024-01-29_17h50.19.985,VisTraining2,2021.2.3,Win32,60.24096386,,,2,13,0,13,0,1,,,,,,,,0.3883,,
,,,,,,,,,,,,,,,0,0,0,0,1,train57_vistrain2,2024-01-29_17h50.19.985,VisTraining2,2021.2.3,Win32,60.24096386,,,,,,,,,4,"[4,2,2,2,1,1,1]",1.08,3,6,1,black,,,
,,,,,,,,,,,,,,,1,0,1,0,1,train57_vistrain2,2024-01-29_17h50.19.985,VisTraining2,2021.2.3,Win32,60.24096386,,,,,,,,,2,"[4,2,2,2,1,1,1]",0.54,3,6,1,black,,,
,,,,,,,,,,,,,,,2,0,2,0,1,train57_vistrain2,2024-01-29_17h50.19.985,VisTraining2,2021.2.3,Win32,60.24096386,,,,,,,,,2,"[4,2,2,2,1,1,1]",0.54,3,6,1,black,,,
,,,,,,,,,,,,,,,3,0,3,0,1,train57_vistrain2,2024-01-29_17h50.19.985,VisTraining2,2021.2.3,Win32,60.24096386,,,,,,,,,2,"[4,2,2,2,1,1,1]",0.54,3,6,1,black,,,
,,,,,,,,,,,,,,,4,0,4,0,1,train57_vistrain2,2024-01-29_17h50.19.985,VisTraining2,2021.2.3,Win32,60.24096386,,,,,,,,,1,"[4,2,2,2,1,1,1]",0.27,3,6,1,black,,,
,,,,,,,,,,,,,,,5,0,5,0,1,train57_vistrain2,2024-01-29_17h50.19.985,VisTraining2,2021.2.3,Win32,60.24096386,,,,,,,,,1,"[4,2,2,2,1,1,1]",0.27,3,6,1,black,,,
,,,,,,,,,,,,,,,6,0,6,0,1,train57_vistrain2,2024-01-29_17h50.19.985,VisTraining2,2021.2.3,Win32,60.24096386,,,,,,,,,1,"[4,2,2,2,1,1,1]",0.27,3,6,1,black,,,
,,,,,,,,,,,,,,,7,0,7,0,1,train57_vistrain2,2024-01-29_17h50.19.985,VisTraining2,2021.2.3,Win32,60.24096386,,,,,,,,,4,"[4,2,2,1,1,2,1]",1.08,3,6,1,black,,,
,,,,,,,,,,,,,,,8,0,8,0,1,train57_vistrain2,2024-01-29_17h50.19.985,VisTraining2,2021.2.3,Win32,60.24096386,,,,,,,,,2,"[4,2,2,1,1,2,1]",0.54,3,6,1,black,,,
,,,,,,,,,,,,,,,9,0,9,0,1,train57_vistrain2,2024-01-29_17h50.19.985,VisTraining2,2021.2.3,Win32,60.24096386,,,,,,,,,2,"[4,2,2,1,1,2,1]",0.54,3,6,1,black,,,
,,,,,,,,,,,,,,,10,0,10,0,1,train57_vistrain2,2024-01-29_17h50.19.985,VisTraining2,2021.2.3,Win32,60.24096386,,,,,,,,,1,"[4,2,2,1,1,2,1]",0.27,3,6,1,black,,,
,,,,,,,,,,,,,,,11,0,11,0,1,train57_vistrain2,2024-01-29_17h50.19.985,VisTraining2,2021.2.3,Win32,60.24096386,,,,,,,,,1,"[4,2,2,1,1,2,1]",0.27,3,6,1,black,,,
,,,,,,,,,,,,,,,12,0,12,0,1,train57_vistrain2,2024-01-29_17h50.19.985,VisTraining2,2021.2.3,Win32,60.24096386,,,,,,,,,2,"[4,2,2,1,1,2,1]",0.54,3,6,1,black,,,
,,,,,,,,,,,,,,,13,0,13,0,1,train57_vistrain2,2024-01-29_17h50.19.985,VisTraining2,2021.2.3,Win32,60.24096386,,,,,,,,,1,"[4,2,2,1,1,2,1]",0.27,3,6,1,black,,,
,,,,,,,,,,,,,,,14,0,14,0,1,train57_vistrain2,2024-01-29_17h50.19.985,VisTraining2,2021.2.3,Win32,60.24096386,,,,,,,,,4,"[4,2,2,1,1,2,1]",1.08,3,6,1,black,,,
,,,,,,,,,,,,,,,15,0,15,0,1,train57_vistrain2,2024-01-29_17h50.19.985,VisTraining2,2021.2.3,Win32,60.24096386,,,,,,,,,2,"[4,2,2,1,1,2,1]",0.54,3,6,1,black,,,
,,,,,,,,,,,,,,,16,0,16,0,1,train57_vistrain2,2024-01-29_17h50.19.985,VisTraining2,2021.2.3,Win32,60.24096386,,,,,,,,,2,"[4,2,2,1,1,2,1]",0.54,3,6,1,black,,,
,,,,,,,,,,,,,,,17,0,17,0,1,train57_vistrain2,2024-01-29_17h50.19.985,VisTraining2,2021.2.3,Win32,60.24096386,,,,,,,,,1,"[4,2,2,1,1,2,1]",0.27,3,6,1,black,,,
,,,,,,,,,,,,,,,18,0,18,0,1,train57_vistrain2,2024-01-29_17h50.19.985,VisTraining2,2021.2.3,Win32,60.24096386,,,,,,,,,1,"[4,2,2,1,1,2,1]",0.27,3,6,1,black,,,
,,,,,,,,,,,,,,,19,0,19,0,1,train57_vistrain2,2024-01-29_17h50.19.985,VisTraining2,2021.2.3,Win32,60.24096386,,,,,,,,,2,"[4,2,2,1,1,2,1]",0.54,3,6,1,black,,,
,,,,,,,,,,,,,,,20,0,20,0,1,train57_vistrain2,2024-01-29_17h50.19.985,VisTraining2,2021.2.3,Win32,60.24096386,,,,,,,,,1,"[4,2,2,1,1,2,1]",0.27,3,6,1,black,,,
,,,,,,,,,,,,,,,,,,,,train57_vistrain2,2024-01-29_17h50.19.985,VisTraining2,2021.2.3,Win32,60.24096386,,,1,14,0,14,0,1,,,,,,,,0.2374,,
,,,,,,,,,,,,,,,0,0,0,0,1,train57_vistrain2,2024-01-29_17h50.19.985,VisTraining2,2021.2.3,Win32,60.24096386,,,,,,,,,1,"[1,1,2,3,1,2,2,1]",0.25,2,7,2,black,,,
,,,,,,,,,,,,,,,1,0,1,0,1,train57_vistrain2,2024-01-29_17h50.19.985,VisTraining2,2021.2.3,Win32,60.24096386,,,,,,,,,1,"[1,1,2,3,1,2,2,1]",0.25,2,7,2,black,,,
,,,,,,,,,,,,,,,2,0,2,0,1,train57_vistrain2,2024-01-29_17h50.19.985,VisTraining2,2021.2.3,Win32,60.24096386,,,,,,,,,2,"[1,1,2,3,1,2,2,1]",0.5,2,7,2,black,,,
,,,,,,,,,,,,,,,3,0,3,0,1,train57_vistrain2,2024-01-29_17h50.19.985,VisTraining2,2021.2.3,Win32,60.24096386,,,,,,,,,3,"[1,1,2,3,1,2,2,1]",0.75,2,7,2,black,,,
,,,,,,,,,,,,,,,4,0,4,0,1,train57_vistrain2,2024-01-29_17h50.19.985,VisTraining2,2021.2.3,Win32,60.24096386,,,,,,,,,1,"[1,1,2,3,1,2,2,1]",0.25,2,7,2,black,,,
,,,,,,,,,,,,,,,5,0,5,0,1,train57_vistrain2,2024-01-29_17h50.19.985,VisTraining2,2021.2.3,Win32,60.24096386,,,,,,,,,2,"[1,1,2,3,1,2,2,1]",0.5,2,7,2,black,,,
,,,,,,,,,,,,,,,6,0,6,0,1,train57_vistrain2,2024-01-29_17h50.19.985,VisTraining2,2021.2.3,Win32,60.24096386,,,,,,,,,2,"[1,1,2,3,1,2,2,1]",0.5,2,7,2,black,,,
,,,,,,,,,,,,,,,7,0,7,0,1,train57_vistrain2,2024-01-29_17h50.19.985,VisTraining2,2021.2.3,Win32,60.24096386,,,,,,,,,1,"[1,1,2,3,1,2,2,1]",0.25,2,7,2,black,,,
,,,,,,,,,,,,,,,8,0,8,0,1,train57_vistrain2,2024-01-29_17h50.19.985,VisTraining2,2021.2.3,Win32,60.24096386,,,,,,,,,1,"[1,1,2,1,3,2,2,1]",0.25,2,7,2,black,,,
,,,,,,,,,,,,,,,9,0,9,0,1,train57_vistrain2,2024-01-29_17h50.19.985,VisTraining2,2021.2.3,Win32,60.24096386,,,,,,,,,1,"[1,1,2,1,3,2,2,1]",0.25,2,7,2,black,,,
,,,,,,,,,,,,,,,10,0,10,0,1,train57_vistrain2,2024-01-29_17h50.19.985,VisTraining2,2021.2.3,Win32,60.24096386,,,,,,,,,2,"[1,1,2,1,3,2,2,1]",0.5,2,7,2,black,,,
,,,,,,,,,,,,,,,11,0,11,0,1,train57_vistrain2,2024-01-29_17h50.19.985,VisTraining2,2021.2.3,Win32,60.24096386,,,,,,,,,1,"[1,1,2,1,3,2,2,1]",0.25,2,7,2,black,,,
,,,,,,,,,,,,,,,12,0,12,0,1,train57_vistrain2,2024-01-29_17h50.19.985,VisTraining2,2021.2.3,Win32,60.24096386,,,,,,,,,3,"[1,1,2,1,3,2,2,1]",0.75,2,7,2,black,,,
,,,,,,,,,,,,,,,13,0,13,0,1,train57_vistrain2,2024-01-29_17h50.19.985,VisTraining2,2021.2.3,Win32,60.24096386,,,,,,,,,2,"[1,1,2,1,3,2,2,1]",0.5,2,7,2,black,,,
,,,,,,,,,,,,,,,14,0,14,0,1,train57_vistrain2,2024-01-29_17h50.19.985,VisTraining2,2021.2.3,Win32,60.24096386,,,,,,,,,2,"[1,1,2,1,3,2,2,1]",0.5,2,7,2,black,,,
,,,,,,,,,,,,,,,15,0,15,0,1,train57_vistrain2,2024-01-29_17h50.19.985,VisTraining2,2021.2.3,Win32,60.24096386,,,,,,,,,1,"[1,1,2,1,3,2,2,1]",0.25,2,7,2,black,,,
,,,,,,,,,,,,,,,16,0,16,0,1,train57_vistrain2,2024-01-29_17h50.19.985,VisTraining2,2021.2.3,Win32,60.24096386,,,,,,,,,1,"[1,1,2,3,1,2,2,1]",0.25,2,7,2,black,,,
,,,,,,,,,,,,,,,17,0,17,0,1,train57_vistrain2,2024-01-29_17h50.19.985,VisTraining2,2021.2.3,Win32,60.24096386,,,,,,,,,1,"[1,1,2,3,1,2,2,1]",0.25,2,7,2,black,,,
,,,,,,,,,,,,,,,18,0,18,0,1,train57_vistrain2,2024-01-29_17h50.19.985,VisTraining2,2021.2.3,Win32,60.24096386,,,,,,,,,2,"[1,1,2,3,1,2,2,1]",0.5,2,7,2,black,,,
,,,,,,,,,,,,,,,19,0,19,0,1,train57_vistrain2,2024-01-29_17h50.19.985,VisTraining2,2021.2.3,Win32,60.24096386,,,,,,,,,3,"[1,1,2,3,1,2,2,1]",0.75,2,7,2,black,,,
,,,,,,,,,,,,,,,20,0,20,0,1,train57_vistrain2,2024-01-29_17h50.19.985,VisTraining2,2021.2.3,Win32,60.24096386,,,,,,,,,1,"[1,1,2,3,1,2,2,1]",0.25,2,7,2,black,,,
,,,,,,,,,,,,,,,21,0,21,0,1,train57_vistrain2,2024-01-29_17h50.19.985,VisTraining2,2021.2.3,Win32,60.24096386,,,,,,,,,2,"[1,1,2,3,1,2,2,1]",0.5,2,7,2,black,,,
,,,,,,,,,,,,,,,22,0,22,0,1,train57_vistrain2,2024-01-29_17h50.19.985,VisTraining2,2021.2.3,Win32,60.24096386,,,,,,,,,2,"[1,1,2,3,1,2,2,1]",0.5,2,7,2,black,,,
,,,,,,,,,,,,,,,23,0,23,0,1,train57_vistrain2,2024-01-29_17h50.19.985,VisTraining2,2021.2.3,Win32,60.24096386,,,,,,,,,1,"[1,1,2,3,1,2,2,1]",0.25,2,7,2,black,,,
,,,,,,,,,,,,,,,,,,,,train57_vistrain2,2024-01-29_17h50.19.985,VisTraining2,2021.2.3,Win32,60.24096386,,,3,15,0,15,0,1,,,,,,,,0.5186,,
,,,,,,,,,,,,,,,0,0,0,0,1,train57_vistrain2,2024-01-29_17h50.19.985,VisTraining2,2021.2.3,Win32,60.24096386,,,,,,,,,1,"[1,3,4,2,2,1]",0.25,2,5,1,black,,,
,,,,,,,,,,,,,,,1,0,1,0,1,train57_vistrain2,2024-01-29_17h50.19.985,VisTraining2,2021.2.3,Win32,60.24096386,,,,,,,,,3,"[1,3,4,2,2,1]",0.75,2,5,1,black,,,
,,,,,,,,,,,,,,,2,0,2,0,1,train57_vistrain2,2024-01-29_17h50.19.985,VisTraining2,2021.2.3,Win32,60.24096386,,,,,,,,,4,"[1,3,4,2,2,1]",1,2,5,1,black,,,
,,,,,,,,,,,,,,,3,0,3,0,1,train57_vistrain2,2024-01-29_17h50.19.985,VisTraining2,2021.2.3,Win32,60.24096386,,,,,,,,,2,"[1,3,4,2,2,1]",0.5,2,5,1,black,,,
,,,,,,,,,,,,,,,4,0,4,0,1,train57_vistrain2,2024-01-29_17h50.19.985,VisTraining2,2021.2.3,Win32,60.24096386,,,,,,,,,2,"[1,3,4,2,2,1]",0.5,2,5,1,black,,,
,,,,,,,,,,,,,,,5,0,5,0,1,train57_vistrain2,2024-01-29_17h50.19.985,VisTraining2,2021.2.3,Win32,60.24096386,,,,,,,,,1,"[1,3,4,2,2,1]",0.25,2,5,1,black,,,
,,,,,,,,,,,,,,,6,0,6,0,1,train57_vistrain2,2024-01-29_17h50.19.985,VisTraining2,2021.2.3,Win32,60.24096386,,,,,,,,,3,"[3,1,4,2,2,1]",0.75,2,5,1,black,,,
,,,,,,,,,,,,,,,7,0,7,0,1,train57_vistrain2,2024-01-29_17h50.19.985,VisTraining2,2021.2.3,Win32,60.24096386,,,,,,,,,1,"[3,1,4,2,2,1]",0.25,2,5,1,black,,,
,,,,,,,,,,,,,,,8,0,8,0,1,train57_vistrain2,2024-01-29_17h50.19.985,VisTraining2,2021.2.3,Win32,60.24096386,,,,,,,,,4,"[3,1,4,2,2,1]",1,2,5,1,black,,,
,,,,,,,,,,,,,,,9,0,9,0,1,train57_vistrain2,2024-01-29_17h50.19.985,VisTraining2,2021.2.3,Win32,60.24096386,,,,,,,,,2,"[3,1,4,2,2,1]",0.5,2,5,1,black,,,
,,,,,,,,,,,,,,,10,0,10,0,1,train57_vistrain2,2024-01-29_17h50.19.985,VisTraining2,2021.2.3,Win32,60.24096386,,,,,,,,,2,"[3,1,4,2,2,1]",0.5,2,5,1,black,,,
,,,,,,,,,,,,,,,11,0,11,0,1,train57_vistrain2,2024-01-29_17h50.19.985,VisTraining2,2021.2.3,Win32,60.24096386,,,,,,,,,1,"[3,1,4,2,2,1]",0.25,2,5,1,black,,,
,,,,,,,,,,,,,,,12,0,12,0,1,train57_vistrain2,2024-01-29_17h50.19.985,VisTraining2,2021.2.3,Win32,60.24096386,,,,,,,,,3,"[3,1,4,2,2,1]",0.75,2,5,1,black,,,
,,,,,,,,,,,,,,,13,0,13,0,1,train57_vistrain2,2024-01-29_17h50.19.985,VisTraining2,2021.2.3,Win32,60.24096386,,,,,,,,,1,"[3,1,4,2,2,1]",0.25,2,5,1,black,,,
,,,,,,,,,,,,,,,14,0,14,0,1,train57_vistrain2,2024-01-29_17h50.19.985,VisTraining2,2021.2.3,Win32,60.24096386,,,,,,,,,4,"[3,1,4,2,2,1]",1,2,5,1,black,,,
,,,,,,,,,,,,,,,15,0,15,0,1,train57_vistrain2,2024-01-29_17h50.19.985,VisTraining2,2021.2.3,Win32,60.24096386,,,,,,,,,2,"[3,1,4,2,2,1]",0.5,2,5,1,black,,,
,,,,,,,,,,,,,,,16,0,16,0,1,train57_vistrain2,2024-01-29_17h50.19.985,VisTraining2,2021.2.3,Win32,60.24096386,,,,,,,,,2,"[3,1,4,2,2,1]",0.5,2,5,1,black,,,
,,,,,,,,,,,,,,,17,0,17,0,1,train57_vistrain2,2024-01-29_17h50.19.985,VisTraining2,2021.2.3,Win32,60.24096386,,,,,,,,,1,"[3,1,4,2,2,1]",0.25,2,5,1,black,,,
,,,,,,,,,,,,,,,,,,,,train57_vistrain2,2024-01-29_17h50.19.985,VisTraining2,2021.2.3,Win32,60.24096386,,,2,16,0,16,0,1,,,,,,,,0.9491,,
,,,,,,,,,,,,,,,0,0,0,0,1,train57_vistrain2,2024-01-29_17h50.19.985,VisTraining2,2021.2.3,Win32,60.24096386,,,,,,,,,2,"[2,1,1,3,1,4,1]",0.54,3,6,1,black,,,
,,,,,,,,,,,,,,,1,0,1,0,1,train57_vistrain2,2024-01-29_17h50.19.985,VisTraining2,2021.2.3,Win32,60.24096386,,,,,,,,,1,"[2,1,1,3,1,4,1]",0.27,3,6,1,black,,,
,,,,,,,,,,,,,,,2,0,2,0,1,train57_vistrain2,2024-01-29_17h50.19.985,VisTraining2,2021.2.3,Win32,60.24096386,,,,,,,,,1,"[2,1,1,3,1,4,1]",0.27,3,6,1,black,,,
,,,,,,,,,,,,,,,3,0,3,0,1,train57_vistrain2,2024-01-29_17h50.19.985,VisTraining2,2021.2.3,Win32,60.24096386,,,,,,,,,3,"[2,1,1,3,1,4,1]",0.81,3,6,1,black,,,
,,,,,,,,,,,,,,,4,0,4,0,1,train57_vistrain2,2024-01-29_17h50.19.985,VisTraining2,2021.2.3,Win32,60.24096386,,,,,,,,,1,"[2,1,1,3,1,4,1]",0.27,3,6,1,black,,,
,,,,,,,,,,,,,,,5,0,5,0,1,train57_vistrain2,2024-01-29_17h50.19.985,VisTraining2,2021.2.3,Win32,60.24096386,,,,,,,,,4,"[2,1,1,3,1,4,1]",1.08,3,6,1,black,,,
,,,,,,,,,,,,,,,6,0,6,0,1,train57_vistrain2,2024-01-29_17h50.19.985,VisTraining2,2021.2.3,Win32,60.24096386,,,,,,,,,1,"[2,1,1,3,1,4,1]",0.27,3,6,1,black,,,
,,,,,,,,,,,,,,,7,0,7,0,1,train57_vistrain2,2024-01-29_17h50.19.985,VisTraining2,2021.2.3,Win32,60.24096386,,,,,,,,,2,"[2,1,1,1,3,4,1]",0.54,3,6,1,black,,,
,,,,,,,,,,,,,,,8,0,8,0,1,train57_vistrain2,2024-01-29_17h50.19.985,VisTraining2,2021.2.3,Win32,60.24096386,,,,,,,,,1,"[2,1,1,1,3,4,1]",0.27,3,6,1,black,,,
,,,,,,,,,,,,,,,9,0,9,0,1,train57_vistrain2,2024-01-29_17h50.19.985,VisTraining2,2021.2.3,Win32,60.24096386,,,,,,,,,1,"[2,1,1,1,3,4,1]",0.27,3,6,1,black,,,
,,,,,,,,,,,,,,,10,0,10,0,1,train57_vistrain2,2024-01-29_17h50.19.985,VisTraining2,2021.2.3,Win32,60.24096386,,,,,,,,,1,"[2,1,1,1,3,4,1]",0.27,3,6,1,black,,,
,,,,,,,,,,,,,,,11,0,11,0,1,train57_vistrain2,2024-01-29_17h50.19.985,VisTraining2,2021.2.3,Win32,60.24096386,,,,,,,,,3,"[2,1,1,1,3,4,1]",0.81,3,6,1,black,,,
,,,,,,,,,,,,,,,12,0,12,0,1,train57_vistrain2,2024-01-29_17h50.19.985,VisTraining2,2021.2.3,Win32,60.24096386,,,,,,,,,4,"[2,1,1,1,3,4,1]",1.08,3,6,1,black,,,
,,,,,,,,,,,,,,,13,0,13,0,1,train57_vistrain2,2024-01-29_17h50.19.985,VisTraining2,2021.2.3,Win32,60.24096386,,,,,,,,,1,"[2,1,1,1,3,4,1]",0.27,3,6,1,black,,,
,,,,,,,,,,,,,,,14,0,14,0,1,train57_vistrain2,2024-01-29_17h50.19.985,VisTraining2,2021.2.3,Win32,60.24096386,,,,,,,,,2,"[2,1,1,1,3,4,1]",0.54,3,6,1,black,,,
,,,,,,,,,,,,,,,15,0,15,0,1,train57_vistrain2,2024-01-29_17h50.19.985,VisTraining2,2021.2.3,Win32,60.24096386,,,,,,,,,1,"[2,1,1,1,3,4,1]",0.27,3,6,1,black,,,
,,,,,,,,,,,,,,,16,0,16,0,1,train57_vistrain2,2024-01-29_17h50.19.985,VisTraining2,2021.2.3,Win32,60.24096386,,,,,,,,,1,"[2,1,1,1,3,4,1]",0.27,3,6,1,black,,,
,,,,,,,,,,,,,,,17,0,17,0,1,train57_vistrain2,2024-01-29_17h50.19.985,VisTraining2,2021.2.3,Win32,60.24096386,,,,,,,,,1,"[2,1,1,1,3,4,1]",0.27,3,6,1,black,,,
,,,,,,,,,,,,,,,18,0,18,0,1,train57_vistrain2,2024-01-29_17h50.19.985,VisTraining2,2021.2.3,Win32,60.24096386,,,,,,,,,3,"[2,1,1,1,3,4,1]",0.81,3,6,1,black,,,
,,,,,,,,,,,,,,,19,0,19,0,1,train57_vistrain2,2024-01-29_17h50.19.985,VisTraining2,2021.2.3,Win32,60.24096386,,,,,,,,,4,"[2,1,1,1,3,4,1]",1.08,3,6,1,black,,,
,,,,,,,,,,,,,,,20,0,20,0,1,train57_vistrain2,2024-01-29_17h50.19.985,VisTraining2,2021.2.3,Win32,60.24096386,,,,,,,,,1,"[2,1,1,1,3,4,1]",0.27,3,6,1,black,,,
,,,,,,,,,,,,,,,,,,,,train57_vistrain2,2024-01-29_17h50.19.985,VisTraining2,2021.2.3,Win32,60.24096386,,,2,17,0,17,0,1,,,,,,,,0.906,,
,,,,,,,,,,,,,,,0,0,0,0,1,train57_vistrain2,2024-01-29_17h50.19.985,VisTraining2,2021.2.3,Win32,60.24096386,,,,,,,,,1,"[1,1,2,1,1,2,4,1]",0.25,2,7,1,black,,,
,,,,,,,,,,,,,,,1,0,1,0,1,train57_vistrain2,2024-01-29_17h50.19.985,VisTraining2,2021.2.3,Win32,60.24096386,,,,,,,,,1,"[1,1,2,1,1,2,4,1]",0.25,2,7,1,black,,,
,,,,,,,,,,,,,,,2,0,2,0,1,train57_vistrain2,2024-01-29_17h50.19.985,VisTraining2,2021.2.3,Win32,60.24096386,,,,,,,,,2,"[1,1,2,1,1,2,4,1]",0.5,2,7,1,black,,,
,,,,,,,,,,,,,,,3,0,3,0,1,train57_vistrain2,2024-01-29_17h50.19.985,VisTraining2,2021.2.3,Win32,60.24096386,,,,,,,,,1,"[1,1,2,1,1,2,4,1]",0.25,2,7,1,black,,,
,,,,,,,,,,,,,,,4,0,4,0,1,train57_vistrain2,2024-01-29_17h50.19.985,VisTraining2,2021.2.3,Win32,60.24096386,,,,,,,,,1,"[1,1,2,1,1,2,4,1]",0.25,2,7,1,black,,,
,,,,,,,,,,,,,,,5,0,5,0,1,train57_vistrain2,2024-01-29_17h50.19.985,VisTraining2,2021.2.3,Win32,60.24096386,,,,,,,,,2,"[1,1,2,1,1,2,4,1]",0.5,2,7,1,black,,,
,,,,,,,,,,,,,,,6,0,6,0,1,train57_vistrain2,2024-01-29_17h50.19.985,VisTraining2,2021.2.3,Win32,60.24096386,,,,,,,,,4,"[1,1,2,1,1,2,4,1]",1,2,7,1,black,,,
,,,,,,,,,,,,,,,7,0,7,0,1,train57_vistrain2,2024-01-29_17h50.19.985,VisTraining2,2021.2.3,Win32,60.24096386,,,,,,,,,1,"[1,1,2,1,1,2,4,1]",0.25,2,7,1,black,,,
,,,,,,,,,,,,,,,8,0,8,0,1,train57_vistrain2,2024-01-29_17h50.19.985,VisTraining2,2021.2.3,Win32,60.24096386,,,,,,,,,1,"[1,1,2,2,1,1,4,1]",0.25,2,7,1,black,,,
,,,,,,,,,,,,,,,9,0,9,0,1,train57_vistrain2,2024-01-29_17h50.19.985,VisTraining2,2021.2.3,Win32,60.24096386,,,,,,,,,1,"[1,1,2,2,1,1,4,1]",0.25,2,7,1,black,,,
,,,,,,,,,,,,,,,10,0,10,0,1,train57_vistrain2,2024-01-29_17h50.19.985,VisTraining2,2021.2.3,Win32,60.24096386,,,,,,,,,2,"[1,1,2,2,1,1,4,1]",0.5,2,7,1,black,,,
,,,,,,,,,,,,,,,11,0,11,0,1,train57_vistrain2,2024-01-29_17h50.19.985,VisTraining2,2021.2.3,Win32,60.24096386,,,,,,,,,2,"[1,1,2,2,1,1,4,1]",0.5,2,7,1,black,,,
,,,,,,,,,,,,,,,12,0,12,0,1,train57_vistrain2,2024-01-29_17h50.19.985,VisTraining2,2021.2.3,Win32,60.24096386,,,,,,,,,1,"[1,1,2,2,1,1,4,1]",0.25,2,7,1,black,,,
,,,,,,,,,,,,,,,13,0,13,0,1,train57_vistrain2,2024-01-29_17h50.19.985,VisTraining2,2021.2.3,Win32,60.24096386,,,,,,,,,1,"[1,1,2,2,1,1,4,1]",0.25,2,7,1,black,,,
,,,,,,,,,,,,,,,14,0,14,0,1,train57_vistrain2,2024-01-29_17h50.19.985,VisTraining2,2021.2.3,Win32,60.24096386,,,,,,,,,4,"[1,1,2,2,1,1,4,1]",1,2,7,1,black,,,
,,,,,,,,,,,,,,,15,0,15,0,1,train57_vistrain2,2024-01-29_17h50.19.985,VisTraining2,2021.2.3,Win32,60.24096386,,,,,,,,,1,"[1,1,2,2,1,1,4,1]",0.25,2,7,1,black,,,
,,,,,,,,,,,,,,,16,0,16,0,1,train57_vistrain2,2024-01-29_17h50.19.985,VisTraining2,2021.2.3,Win32,60.24096386,,,,,,,,,1,"[1,1,2,2,1,1,4,1]",0.25,2,7,1,black,,,
,,,,,,,,,,,,,,,17,0,17,0,1,train57_vistrain2,2024-01-29_17h50.19.985,VisTraining2,2021.2.3,Win32,60.24096386,,,,,,,,,1,"[1,1,2,2,1,1,4,1]",0.25,2,7,1,black,,,
,,,,,,,,,,,,,,,18,0,18,0,1,train57_vistrain2,2024-01-29_17h50.19.985,VisTraining2,2021.2.3,Win32,60.24096386,,,,,,,,,2,"[1,1,2,2,1,1,4,1]",0.5,2,7,1,black,,,
,,,,,,,,,,,,,,,19,0,19,0,1,train57_vistrain2,2024-01-29_17h50.19.985,VisTraining2,2021.2.3,Win32,60.24096386,,,,,,,,,2,"[1,1,2,2,1,1,4,1]",0.5,2,7,1,black,,,
,,,,,,,,,,,,,,,20,0,20,0,1,train57_vistrain2,2024-01-29_17h50.19.985,VisTraining2,2021.2.3,Win32,60.24096386,,,,,,,,,1,"[1,1,2,2,1,1,4,1]",0.25,2,7,1,black,,,
,,,,,,,,,,,,,,,21,0,21,0,1,train57_vistrain2,2024-01-29_17h50.19.985,VisTraining2,2021.2.3,Win32,60.24096386,,,,,,,,,1,"[1,1,2,2,1,1,4,1]",0.25,2,7,1,black,,,
,,,,,,,,,,,,,,,22,0,22,0,1,train57_vistrain2,2024-01-29_17h50.19.985,VisTraining2,2021.2.3,Win32,60.24096386,,,,,,,,,4,"[1,1,2,2,1,1,4,1]",1,2,7,1,black,,,
,,,,,,,,,,,,,,,23,0,23,0,1,train57_vistrain2,2024-01-29_17h50.19.985,VisTraining2,2021.2.3,Win32,60.24096386,,,,,,,,,1,"[1,1,2,2,1,1,4,1]",0.25,2,7,1,black,,,
,,,,,,,,,,,,,,,,,,,,train57_vistrain2,2024-01-29_17h50.19.985,VisTraining2,2021.2.3,Win32,60.24096386,,,2,18,0,18,0,1,,,,,,,,0.7378,,
,,,,,,,,,,,,,,,0,0,0,0,1,train57_vistrain2,2024-01-29_17h50.19.985,VisTraining2,2021.2.3,Win32,60.24096386,,,,,,,,,1,"[1,3,2,2,1,1,2,1]",0.25,2,7,1,black,,,
,,,,,,,,,,,,,,,1,0,1,0,1,train57_vistrain2,2024-01-29_17h50.19.985,VisTraining2,2021.2.3,Win32,60.24096386,,,,,,,,,3,"[1,3,2,2,1,1,2,1]",0.75,2,7,1,black,,,
,,,,,,,,,,,,,,,2,0,2,0,1,train57_vistrain2,2024-01-29_17h50.19.985,VisTraining2,2021.2.3,Win32,60.24096386,,,,,,,,,2,"[1,3,2,2,1,1,2,1]",0.5,2,7,1,black,,,
,,,,,,,,,,,,,,,3,0,3,0,1,train57_vistrain2,2024-01-29_17h50.19.985,VisTraining2,2021.2.3,Win32,60.24096386,,,,,,,,,2,"[1,3,2,2,1,1,2,1]",0.5,2,7,1,black,,,
,,,,,,,,,,,,,,,4,0,4,0,1,train57_vistrain2,2024-01-29_17h50.19.985,VisTraining2,2021.2.3,Win32,60.24096386,,,,,,,,,1,"[1,3,2,2,1,1,2,1]",0.25,2,7,1,black,,,
,,,,,,,,,,,,,,,5,0,5,0,1,train57_vistrain2,2024-01-29_17h50.19.985,VisTraining2,2021.2.3,Win32,60.24096386,,,,,,,,,1,"[1,3,2,2,1,1,2,1]",0.25,2,7,1,black,,,
,,,,,,,,,,,,,,,6,0,6,0,1,train57_vistrain2,2024-01-29_17h50.19.985,VisTraining2,2021.2.3,Win32,60.24096386,,,,,,,,,2,"[1,3,2,2,1,1,2,1]",0.5,2,7,1,black,,,
,,,,,,,,,,,,,,,7,0,7,0,1,train57_vistrain2,2024-01-29_17h50.19.985,VisTraining2,2021.2.3,Win32,60.24096386,,,,,,,,,1,"[1,3,2,2,1,1,2,1]",0.25,2,7,1,black,,,
,,,,,,,,,,,,,,,8,0,8,0,1,train57_vistrain2,2024-01-29_17h50.19.985,VisTraining2,2021.2.3,Win32,60.24096386,,,,,,,,,3,"[3,1,2,2,1,1,2,1]",0.75,2,7,1,black,,,
,,,,,,,,,,,,,,,9,0,9,0,1,train57_vistrain2,2024-01-29_17h50.19.985,VisTraining2,2021.2.3,Win32,60.24096386,,,,,,,,,1,"[3,1,2,2,1,1,2,1]",0.25,2,7,1,black,,,
,,,,,,,,,,,,,,,10,0,10,0,1,train57_vistrain2,2024-01-29_17h50.19.985,VisTraining2,2021.2.3,Win32,60.24096386,,,,,,,,,2,"[3,1,2,2,1,1,2,1]",0.5,2,7,1,black,,,
,,,,,,,,,,,,,,,11,0,11,0,1,train57_vistrain2,2024-01-29_17h50.19.985,VisTraining2,2021.2.3,Win32,60.24096386,,,,,,,,,2,"[3,1,2,2,1,1,2,1]",0.5,2,7,1,black,,,
,,,,,,,,,,,,,,,12,0,12,0,1,train57_vistrain2,2024-01-29_17h50.19.985,VisTraining2,2021.2.3,Win32,60.24096386,,,,,,,,,1,"[3,1,2,2,1,1,2,1]",0.25,2,7,1,black,,,
,,,,,,,,,,,,,,,13,0,13,0,1,train57_vistrain2,2024-01-29_17h50.19.985,VisTraining2,2021.2.3,Win32,60.24096386,,,,,,,,,1,"[3,1,2,2,1,1,2,1]",0.25,2,7,1,black,,,
,,,,,,,,,,,,,,,14,0,14,0,1,train57_vistrain2,2024-01-29_17h50.19.985,VisTraining2,2021.2.3,Win32,60.24096386,,,,,,,,,2,"[3,1,2,2,1,1,2,1]",0.5,2,7,1,black,,,
,,,,,,,,,,,,,,,15,0,15,0,1,train57_vistrain2,2024-01-29_17h50.19.985,VisTraining2,2021.2.3,Win32,60.24096386,,,,,,,,,1,"[3,1,2,2,1,1,2,1]",0.25,2,7,1,black,,,
,,,,,,,,,,,,,,,16,0,16,0,1,train57_vistrain2,2024-01-29_17h50.19.985,VisTraining2,2021.2.3,Win32,60.24096386,,,,,,,,,3,"[3,1,2,2,1,1,2,1]",0.75,2,7,1,black,,,
,,,,,,,,,,,,,,,17,0,17,0,1,train57_vistrain2,2024-01-29_17h50.19.985,VisTraining2,2021.2.3,Win32,60.24096386,,,,,,,,,1,"[3,1,2,2,1,1,2,1]",0.25,2,7,1,black,,,
,,,,,,,,,,,,,,,18,0,18,0,1,train57_vistrain2,2024-01-29_17h50.19.985,VisTraining2,2021.2.3,Win32,60.24096386,,,,,,,,,2,"[3,1,2,2,1,1,2,1]",0.5,2,7,1,black,,,
,,,,,,,,,,,,,,,19,0,19,0,1,train57_vistrain2,2024-01-29_17h50.19.985,VisTraining2,2021.2.3,Win32,60.24096386,,,,,,,,,2,"[3,1,2,2,1,1,2,1]",0.5,2,7,1,black,,,
,,,,,,,,,,,,,,,20,0,20,0,1,train57_vistrain2,2024-01-29_17h50.19.985,VisTraining2,2021.2.3,Win32,60.24096386,,,,,,,,,1,"[3,1,2,2,1,1,2,1]",0.25,2,7,1,black,,,
,,,,,,,,,,,,,,,21,0,21,0,1,train57_vistrain2,2024-01-29_17h50.19.985,VisTraining2,2021.2.3,Win32,60.24096386,,,,,,,,,1,"[3,1,2,2,1,1,2,1]",0.25,2,7,1,black,,,
,,,,,,,,,,,,,,,22,0,22,0,1,train57_vistrain2,2024-01-29_17h50.19.985,VisTraining2,2021.2.3,Win32,60.24096386,,,,,,,,,2,"[3,1,2,2,1,1,2,1]",0.5,2,7,1,black,,,
,,,,,,,,,,,,,,,23,0,23,0,1,train57_vistrain2,2024-01-29_17h50.19.985,VisTraining2,2021.2.3,Win32,60.24096386,,,,,,,,,1,"[3,1,2,2,1,1,2,1]",0.25,2,7,1,black,,,
,,,,,,,,,,,,,,,,,,,,train57_vistrain2,2024-01-29_17h50.19.985,VisTraining2,2021.2.3,Win32,60.24096386,,,3,19,0,19,0,1,,,,,,,,0.2528,,
,,,,,,,,,,,,,,,0,0,0,0,1,train57_vistrain2,2024-01-29_17h50.19.985,VisTraining2,2021.2.3,Win32,60.24096386,,,,,,,,,2,"[2,1,1,2,2,3,1,1]",0.46,1,7,2,black,,,
,,,,,,,,,,,,,,,1,0,1,0,1,train57_vistrain2,2024-01-29_17h50.19.985,VisTraining2,2021.2.3,Win32,60.24096386,,,,,,,,,1,"[2,1,1,2,2,3,1,1]",0.23,1,7,2,black,,,
,,,,,,,,,,,,,,,2,0,2,0,1,train57_vistrain2,2024-01-29_17h50.19.985,VisTraining2,2021.2.3,Win32,60.24096386,,,,,,,,,1,"[2,1,1,2,2,3,1,1]",0.23,1,7,2,black,,,
,,,,,,,,,,,,,,,3,0,3,0,1,train57_vistrain2,2024-01-29_17h50.19.985,VisTraining2,2021.2.3,Win32,60.24096386,,,,,,,,,2,"[2,1,1,2,2,3,1,1]",0.46,1,7,2,black,,,
,,,,,,,,,,,,,,,4,0,4,0,1,train57_vistrain2,2024-01-29_17h50.19.985,VisTraining2,2021.2.3,Win32,60.24096386,,,,,,,,,2,"[2,1,1,2,2,3,1,1]",0.46,1,7,2,black,,,
,,,,,,,,,,,,,,,5,0,5,0,1,train57_vistrain2,2024-01-29_17h50.19.985,VisTraining2,2021.2.3,Win32,60.24096386,,,,,,,,,3,"[2,1,1,2,2,3,1,1]",0.69,1,7,2,black,,,
,,,,,,,,,,,,,,,6,0,6,0,1,train57_vistrain2,2024-01-29_17h50.19.985,VisTraining2,2021.2.3,Win32,60.24096386,,,,,,,,,1,"[2,1,1,2,2,3,1,1]",0.23,1,7,2,black,,,
,,,,,,,,,,,,,,,7,0,7,0,1,train57_vistrain2,2024-01-29_17h50.19.985,VisTraining2,2021.2.3,Win32,60.24096386,,,,,,,,,1,"[2,1,1,2,2,3,1,1]",0.23,1,7,2,black,,,
,,,,,,,,,,,,,,,8,0,8,0,1,train57_vistrain2,2024-01-29_17h50.19.985,VisTraining2,2021.2.3,Win32,60.24096386,,,,,,,,,2,"[2,1,1,2,2,1,3,1]",0.46,1,7,2,black,,,
,,,,,,,,,,,,,,,9,0,9,0,1,train57_vistrain2,2024-01-29_17h50.19.985,VisTraining2,2021.2.3,Win32,60.24096386,,,,,,,,,1,"[2,1,1,2,2,1,3,1]",0.23,1,7,2,black,,,
,,,,,,,,,,,,,,,10,0,10,0,1,train57_vistrain2,2024-01-29_17h50.19.985,VisTraining2,2021.2.3,Win32,60.24096386,,,,,,,,,1,"[2,1,1,2,2,1,3,1]",0.23,1,7,2,black,,,
,,,,,,,,,,,,,,,11,0,11,0,1,train57_vistrain2,2024-01-29_17h50.19.985,VisTraining2,2021.2.3,Win32,60.24096386,,,,,,,,,2,"[2,1,1,2,2,1,3,1]",0.46,1,7,2,black,,,
,,,,,,,,,,,,,,,12,0,12,0,1,train57_vistrain2,2024-01-29_17h50.19.985,VisTraining2,2021.2.3,Win32,60.24096386,,,,,,,,,2,"[2,1,1,2,2,1,3,1]",0.46,1,7,2,black,,,
,,,,,,,,,,,,,,,13,0,13,0,1,train57_vistrain2,2024-01-29_17h50.19.985,VisTraining2,2021.2.3,Win32,60.24096386,,,,,,,,,1,"[2,1,1,2,2,1,3,1]",0.23,1,7,2,black,,,
,,,,,,,,,,,,,,,14,0,14,0,1,train57_vistrain2,2024-01-29_17h50.19.985,VisTraining2,2021.2.3,Win32,60.24096386,,,,,,,,,3,"[2,1,1,2,2,1,3,1]",0.69,1,7,2,black,,,
,,,,,,,,,,,,,,,15,0,15,0,1,train57_vistrain2,2024-01-29_17h50.19.985,VisTraining2,2021.2.3,Win32,60.24096386,,,,,,,,,1,"[2,1,1,2,2,1,3,1]",0.23,1,7,2,black,,,
,,,,,,,,,,,,,,,16,0,16,0,1,train57_vistrain2,2024-01-29_17h50.19.985,VisTraining2,2021.2.3,Win32,60.24096386,,,,,,,,,2,"[2,1,1,2,2,3,1,1]",0.46,1,7,2,black,,,
,,,,,,,,,,,,,,,17,0,17,0,1,train57_vistrain2,2024-01-29_17h50.19.985,VisTraining2,2021.2.3,Win32,60.24096386,,,,,,,,,1,"[2,1,1,2,2,3,1,1]",0.23,1,7,2,black,,,
,,,,,,,,,,,,,,,18,0,18,0,1,train57_vistrain2,2024-01-29_17h50.19.985,VisTraining2,2021.2.3,Win32,60.24096386,,,,,,,,,1,"[2,1,1,2,2,3,1,1]",0.23,1,7,2,black,,,
,,,,,,,,,,,,,,,19,0,19,0,1,train57_vistrain2,2024-01-29_17h50.19.985,VisTraining2,2021.2.3,Win32,60.24096386,,,,,,,,,2,"[2,1,1,2,2,3,1,1]",0.46,1,7,2,black,,,
,,,,,,,,,,,,,,,20,0,20,0,1,train57_vistrain2,2024-01-29_17h50.19.985,VisTraining2,2021.2.3,Win32,60.24096386,,,,,,,,,2,"[2,1,1,2,2,3,1,1]",0.46,1,7,2,black,,,
,,,,,,,,,,,,,,,21,0,21,0,1,train57_vistrain2,2024-01-29_17h50.19.985,VisTraining2,2021.2.3,Win32,60.24096386,,,,,,,,,3,"[2,1,1,2,2,3,1,1]",0.69,1,7,2,black,,,
,,,,,,,,,,,,,,,22,0,22,0,1,train57_vistrain2,2024-01-29_17h50.19.985,VisTraining2,2021.2.3,Win32,60.24096386,,,,,,,,,1,"[2,1,1,2,2,3,1,1]",0.23,1,7,2,black,,,
,,,,,,,,,,,,,,,23,0,23,0,1,train57_vistrain2,2024-01-29_17h50.19.985,VisTraining2,2021.2.3,Win32,60.24096386,,,,,,,,,1,"[2,1,1,2,2,3,1,1]",0.23,1,7,2,black,,,
,,,,,,,,,,,,,,,,,,,,train57_vistrain2,2024-01-29_17h50.19.985,VisTraining2,2021.2.3,Win32,60.24096386,,,3,20,0,20,0,1,,,,,,,,0.4214,,
,,,,,,,,,,,,,,,0,0,0,0,1,train57_vistrain2,2024-01-29_17h50.19.985,VisTraining2,2021.2.3,Win32,60.24096386,,,,,,,,,2,"[2,1,1,4,1,3,1]",0.46,1,6,3,black,,,
,,,,,,,,,,,,,,,1,0,1,0,1,train57_vistrain2,2024-01-29_17h50.19.985,VisTraining2,2021.2.3,Win32,60.24096386,,,,,,,,,1,"[2,1,1,4,1,3,1]",0.23,1,6,3,black,,,
,,,,,,,,,,,,,,,2,0,2,0,1,train57_vistrain2,2024-01-29_17h50.19.985,VisTraining2,2021.2.3,Win32,60.24096386,,,,,,,,,1,"[2,1,1,4,1,3,1]",0.23,1,6,3,black,,,
,,,,,,,,,,,,,,,3,0,3,0,1,train57_vistrain2,2024-01-29_17h50.19.985,VisTraining2,2021.2.3,Win32,60.24096386,,,,,,,,,4,"[2,1,1,4,1,3,1]",0.92,1,6,3,black,,,
,,,,,,,,,,,,,,,4,0,4,0,1,train57_vistrain2,2024-01-29_17h50.19.985,VisTraining2,2021.2.3,Win32,60.24096386,,,,,,,,,1,"[2,1,1,4,1,3,1]",0.23,1,6,3,black,,,
,,,,,,,,,,,,,,,5,0,5,0,1,train57_vistrain2,2024-01-29_17h50.19.985,VisTraining2,2021.2.3,Win32,60.24096386,,,,,,,,,3,"[2,1,1,4,1,3,1]",0.69,1,6,3,black,,,
,,,,,,,,,,,,,,,6,0,6,0,1,train57_vistrain2,2024-01-29_17h50.19.985,VisTraining2,2021.2.3,Win32,60.24096386,,,,,,,,,1,"[2,1,1,4,1,3,1]",0.23,1,6,3,black,,,
,,,,,,,,,,,,,,,7,0,7,0,1,train57_vistrain2,2024-01-29_17h50.19.985,VisTraining2,2021.2.3,Win32,60.24096386,,,,,,,,,2,"[2,1,1,4,1,3,1]",0.46,1,6,3,black,,,
,,,,,,,,,,,,,,,8,0,8,0,1,train57_vistrain2,2024-01-29_17h50.19.985,VisTraining2,2021.2.3,Win32,60.24096386,,,,,,,,,1,"[2,1,1,4,1,3,1]",0.23,1,6,3,black,,,
,,,,,,,,,,,,,,,9,0,9,0,1,train57_vistrain2,2024-01-29_17h50.19.985,VisTraining2,2021.2.3,Win32,60.24096386,,,,,,,,,1,"[2,1,1,4,1,3,1]",0.23,1,6,3,black,,,
,,,,,,,,,,,,,,,10,0,10,0,1,train57_vistrain2,2024-01-29_17h50.19.985,VisTraining2,2021.2.3,Win32,60.24096386,,,,,,,,,4,"[2,1,1,4,1,3,1]",0.92,1,6,3,black,,,
,,,,,,,,,,,,,,,11,0,11,0,1,train57_vistrain2,2024-01-29_17h50.19.985,VisTraining2,2021.2.3,Win32,60.24096386,,,,,,,,,1,"[2,1,1,4,1,3,1]",0.23,1,6,3,black,,,
,,,,,,,,,,,,,,,12,0,12,0,1,train57_vistrain2,2024-01-29_17h50.19.985,VisTraining2,2021.2.3,Win32,60.24096386,,,,,,,,,3,"[2,1,1,4,1,3,1]",0.69,1,6,3,black,,,
,,,,,,,,,,,,,,,13,0,13,0,1,train57_vistrain2,2024-01-29_17h50.19.985,VisTraining2,2021.2.3,Win32,60.24096386,,,,,,,,,1,"[2,1,1,4,1,3,1]",0.23,1,6,3,black,,,
,,,,,,,,,,,,,,,14,0,14,0,1,train57_vistrain2,2024-01-29_17h50.19.985,VisTraining2,2021.2.3,Win32,60.24096386,,,,,,,,,2,"[2,1,1,4,3,1,1]",0.46,1,6,3,black,,,
,,,,,,,,,,,,,,,15,0,15,0,1,train57_vistrain2,2024-01-29_17h50.19.985,VisTraining2,2021.2.3,Win32,60.24096386,,,,,,,,,1,"[2,1,1,4,3,1,1]",0.23,1,6,3,black,,,
,,,,,,,,,,,,,,,16,0,16,0,1,train57_vistrain2,2024-01-29_17h50.19.985,VisTraining2,2021.2.3,Win32,60.24096386,,,,,,,,,1,"[2,1,1,4,3,1,1]",0.23,1,6,3,black,,,
,,,,,,,,,,,,,,,17,0,17,0,1,train57_vistrain2,2024-01-29_17h50.19.985,VisTraining2,2021.2.3,Win32,60.24096386,,,,,,,,,4,"[2,1,1,4,3,1,1]",0.92,1,6,3,black,,,
,,,,,,,,,,,,,,,18,0,18,0,1,train57_vistrain2,2024-01-29_17h50.19.985,VisTraining2,2021.2.3,Win32,60.24096386,,,,,,,,,3,"[2,1,1,4,3,1,1]",0.69,1,6,3,black,,,
,,,,,,,,,,,,,,,19,0,19,0,1,train57_vistrain2,2024-01-29_17h50.19.985,VisTraining2,2021.2.3,Win32,60.24096386,,,,,,,,,1,"[2,1,1,4,3,1,1]",0.23,1,6,3,black,,,
,,,,,,,,,,,,,,,20,0,20,0,1,train57_vistrain2,2024-01-29_17h50.19.985,VisTraining2,2021.2.3,Win32,60.24096386,,,,,,,,,1,"[2,1,1,4,3,1,1]",0.23,1,6,3,black,,,
,,,,,,,,,,,,,,,,,,,,train57_vistrain2,2024-01-29_17h50.19.985,VisTraining2,2021.2.3,Win32,60.24096386,,,1,21,0,21,0,1,,,,,,,,0.4537,,
,,,,,,,,,,,,,,,0,0,0,0,1,train57_vistrain2,2024-01-29_17h50.19.985,VisTraining2,2021.2.3,Win32,60.24096386,,,,,,,,,3,"[3,1,2,2,3,1,1]",0.81,3,6,1,black,,,
,,,,,,,,,,,,,,,1,0,1,0,1,train57_vistrain2,2024-01-29_17h50.19.985,VisTraining2,2021.2.3,Win32,60.24096386,,,,,,,,,1,"[3,1,2,2,3,1,1]",0.27,3,6,1,black,,,
,,,,,,,,,,,,,,,2,0,2,0,1,train57_vistrain2,2024-01-29_17h50.19.985,VisTraining2,2021.2.3,Win32,60.24096386,,,,,,,,,2,"[3,1,2,2,3,1,1]",0.54,3,6,1,black,,,
,,,,,,,,,,,,,,,3,0,3,0,1,train57_vistrain2,2024-01-29_17h50.19.985,VisTraining2,2021.2.3,Win32,60.24096386,,,,,,,,,2,"[3,1,2,2,3,1,1]",0.54,3,6,1,black,,,
,,,,,,,,,,,,,,,4,0,4,0,1,train57_vistrain2,2024-01-29_17h50.19.985,VisTraining2,2021.2.3,Win32,60.24096386,,,,,,,,,3,"[3,1,2,2,3,1,1]",0.81,3,6,1,black,,,
,,,,,,,,,,,,,,,5,0,5,0,1,train57_vistrain2,2024-01-29_17h50.19.985,VisTraining2,2021.2.3,Win32,60.24096386,,,,,,,,,1,"[3,1,2,2,3,1,1]",0.27,3,6,1,black,,,
,,,,,,,,,,,,,,,6,0,6,0,1,train57_vistrain2,2024-01-29_17h50.19.985,VisTraining2,2021.2.3,Win32,60.24096386,,,,,,,,,1,"[3,1,2,2,3,1,1]",0.27,3,6,1,black,,,
,,,,,,,,,,,,,,,7,0,7,0,1,train57_vistrain2,2024-01-29_17h50.19.985,VisTraining2,2021.2.3,Win32,60.24096386,,,,,,,,,3,"[3,1,2,2,1,3,1]",0.81,3,6,1,black,,,
,,,,,,,,,,,,,,,8,0,8,0,1,train57_vistrain2,2024-01-29_17h50.19.985,VisTraining2,2021.2.3,Win32,60.24096386,,,,,,,,,1,"[3,1,2,2,1,3,1]",0.27,3,6,1,black,,,
,,,,,,,,,,,,,,,9,0,9,0,1,train57_vistrain2,2024-01-29_17h50.19.985,VisTraining2,2021.2.3,Win32,60.24096386,,,,,,,,,2,"[3,1,2,2,1,3,1]",0.54,3,6,1,black,,,
,,,,,,,,,,,,,,,10,0,10,0,1,train57_vistrain2,2024-01-29_17h50.19.985,VisTraining2,2021.2.3,Win32,60.24096386,,,,,,,,,2,"[3,1,2,2,1,3,1]",0.54,3,6,1,black,,,
,,,,,,,,,,,,,,,11,0,11,0,1,train57_vistrain2,2024-01-29_17h50.19.985,VisTraining2,2021.2.3,Win32,60.24096386,,,,,,,,,1,"[3,1,2,2,1,3,1]",0.27,3,6,1,black,,,
,,,,,,,,,,,,,,,12,0,12,0,1,train57_vistrain2,2024-01-29_17h50.19.985,VisTraining2,2021.2.3,Win32,60.24096386,,,,,,,,,3,"[3,1,2,2,1,3,1]",0.81,3,6,1,black,,,
,,,,,,,,,,,,,,,13,0,13,0,1,train57_vistrain2,2024-01-29_17h50.19.985,VisTraining2,2021.2.3,Win32,60.24096386,,,,,,,,,1,"[3,1,2,2,1,3,1]",0.27,3,6,1,black,,,
,,,,,,,,,,,,,,,14,0,14,0,1,train57_vistrain2,2024-01-29_17h50.19.985,VisTraining2,2021.2.3,Win32,60.24096386,,,,,,,,,3,"[3,1,2,2,1,3,1]",0.81,3,6,1,black,,,
,,,,,,,,,,,,,,,15,0,15,0,1,train57_vistrain2,2024-01-29_17h50.19.985,VisTraining2,2021.2.3,Win32,60.24096386,,,,,,,,,1,"[3,1,2,2,1,3,1]",0.27,3,6,1,black,,,
,,,,,,,,,,,,,,,16,0,16,0,1,train57_vistrain2,2024-01-29_17h50.19.985,VisTraining2,2021.2.3,Win32,60.24096386,,,,,,,,,2,"[3,1,2,2,1,3,1]",0.54,3,6,1,black,,,
,,,,,,,,,,,,,,,17,0,17,0,1,train57_vistrain2,2024-01-29_17h50.19.985,VisTraining2,2021.2.3,Win32,60.24096386,,,,,,,,,2,"[3,1,2,2,1,3,1]",0.54,3,6,1,black,,,
,,,,,,,,,,,,,,,18,0,18,0,1,train57_vistrain2,2024-01-29_17h50.19.985,VisTraining2,2021.2.3,Win32,60.24096386,,,,,,,,,1,"[3,1,2,2,1,3,1]",0.27,3,6,1,black,,,
,,,,,,,,,,,,,,,19,0,19,0,1,train57_vistrain2,2024-01-29_17h50.19.985,VisTraining2,2021.2.3,Win32,60.24096386,,,,,,,,,3,"[3,1,2,2,1,3,1]",0.81,3,6,1,black,,,
,,,,,,,,,,,,,,,20,0,20,0,1,train57_vistrain2,2024-01-29_17h50.19.985,VisTraining2,2021.2.3,Win32,60.24096386,,,,,,,,,1,"[3,1,2,2,1,3,1]",0.27,3,6,1,black,,,
,,,,,,,,,,,,,,,,,,,,train57_vistrain2,2024-01-29_17h50.19.985,VisTraining2,2021.2.3,Win32,60.24096386,,,3,22,0,22,0,1,,,,,,,,0.2678,,
,,,,,,,,,,,,,,,0,0,0,0,1,train57_vistrain2,2024-01-29_17h50.19.985,VisTraining2,2021.2.3,Win32,60.24096386,,,,,,,,,4,"[4,2,2,1,1,2,1]",0.92,1,6,3,green,,,
,,,,,,,,,,,,,,,1,0,1,0,1,train57_vistrain2,2024-01-29_17h50.19.985,VisTraining2,2021.2.3,Win32,60.24096386,,,,,,,,,2,"[4,2,2,1,1,2,1]",0.46,1,6,3,green,,,
,,,,,,,,,,,,,,,2,0,2,0,1,train57_vistrain2,2024-01-29_17h50.19.985,VisTraining2,2021.2.3,Win32,60.24096386,,,,,,,,,2,"[4,2,2,1,1,2,1]",0.46,1,6,3,green,,,
,,,,,,,,,,,,,,,3,0,3,0,1,train57_vistrain2,2024-01-29_17h50.19.985,VisTraining2,2021.2.3,Win32,60.24096386,,,,,,,,,1,"[4,2,2,1,1,2,1]",0.23,1,6,3,green,,,
,,,,,,,,,,,,,,,4,0,4,0,1,train57_vistrain2,2024-01-29_17h50.19.985,VisTraining2,2021.2.3,Win32,60.24096386,,,,,,,,,1,"[4,2,2,1,1,2,1]",0.23,1,6,3,green,,,
,,,,,,,,,,,,,,,5,0,5,0,1,train57_vistrain2,2024-01-29_17h50.19.985,VisTraining2,2021.2.3,Win32,60.24096386,,,,,,,,,2,"[4,2,2,1,1,2,1]",0.46,1,6,3,green,,,
,,,,,,,,,,,,,,,6,0,6,0,1,train57_vistrain2,2024-01-29_17h50.19.985,VisTraining2,2021.2.3,Win32,60.24096386,,,,,,,,,1,"[4,2,2,1,1,2,1]",0.23,1,6,3,green,,,
,,,,,,,,,,,,,,,7,0,7,0,1,train57_vistrain2,2024-01-29_17h50.19.985,VisTraining2,2021.2.3,Win32,60.24096386,,,,,,,,,4,"[4,2,2,1,1,2,1]",0.92,1,6,3,green,,,
,,,,,,,,,,,,,,,8,0,8,0,1,train57_vistrain2,2024-01-29_17h50.19.985,VisTraining2,2021.2.3,Win32,60.24096386,,,,,,,,,2,"[4,2,2,1,1,2,1]",0.46,1,6,3,green,,,
,,,,,,,,,,,,,,,9,0,9,0,1,train57_vistrain2,2024-01-29_17h50.19.985,VisTraining2,2021.2.3,Win32,60.24096386,,,,,,,,,2,"[4,2,2,1,1,2,1]",0.46,1,6,3,green,,,
,,,,,,,,,,,,,,,10,0,10,0,1,train57_vistrain2,2024-01-29_17h50.19.985,VisTraining2,2021.2.3,Win32,60.24096386,,,,,,,,,1,"[4,2,2,1,1,2,1]",0.23,1,6,3,green,,,
,,,,,,,,,,,,,,,11,0,11,0,1,train57_vistrain2,2024-01-29_17h50.19.985,VisTraining2,2021.2.3,Win32,60.24096386,,,,,,,,,1,"[4,2,2,1,1,2,1]",0.23,1,6,3,green,,,
,,,,,,,,,,,,,,,12,0,12,0,1,train57_vistrain2,2024-01-29_17h50.19.985,VisTraining2,2021.2.3,Win32,60.24096386,,,,,,,,,2,"[4,2,2,1,1,2,1]",0.46,1,6,3,green,,,
,,,,,,,,,,,,,,,13,0,13,0,1,train57_vistrain2,2024-01-29_17h50.19.985,VisTraining2,2021.2.3,Win32,60.24096386,,,,,,,,,1,"[4,2,2,1,1,2,1]",0.23,1,6,3,green,,,
,,,,,,,,,,,,,,,14,0,14,0,1,train57_vistrain2,2024-01-29_17h50.19.985,VisTraining2,2021.2.3,Win32,60.24096386,,,,,,,,,4,"[4,2,2,2,1,1,1]",0.92,1,6,3,green,,,
,,,,,,,,,,,,,,,15,0,15,0,1,train57_vistrain2,2024-01-29_17h50.19.985,VisTraining2,2021.2.3,Win32,60.24096386,,,,,,,,,2,"[4,2,2,2,1,1,1]",0.46,1,6,3,green,,,
,,,,,,,,,,,,,,,16,0,16,0,1,train57_vistrain2,2024-01-29_17h50.19.985,VisTraining2,2021.2.3,Win32,60.24096386,,,,,,,,,2,"[4,2,2,2,1,1,1]",0.46,1,6,3,green,,,
,,,,,,,,,,,,,,,17,0,17,0,1,train57_vistrain2,2024-01-29_17h50.19.985,VisTraining2,2021.2.3,Win32,60.24096386,,,,,,,,,2,"[4,2,2,2,1,1,1]",0.46,1,6,3,green,,,
,,,,,,,,,,,,,,,18,0,18,0,1,train57_vistrain2,2024-01-29_17h50.19.985,VisTraining2,2021.2.3,Win32,60.24096386,,,,,,,,,1,"[4,2,2,2,1,1,1]",0.23,1,6,3,green,,,
,,,,,,,,,,,,,,,19,0,19,0,1,train57_vistrain2,2024-01-29_17h50.19.985,VisTraining2,2021.2.3,Win32,60.24096386,,,,,,,,,1,"[4,2,2,2,1,1,1]",0.23,1,6,3,green,,,
,,,,,,,,,,,,,,,20,0,20,0,1,train57_vistrain2,2024-01-29_17h50.19.985,VisTraining2,2021.2.3,Win32,60.24096386,,,,,,,,,1,"[4,2,2,2,1,1,1]",0.23,1,6,3,green,,,
,,,,,,,,,,,,,,,,,,,,train57_vistrain2,2024-01-29_17h50.19.985,VisTraining2,2021.2.3,Win32,60.24096386,,,g,23,0,23,0,1,,,,,,,,0.4451,,
,,,,,,,,,,,,,,,0,0,0,0,1,train57_vistrain2,2024-01-29_17h50.19.985,VisTraining2,2021.2.3,Win32,60.24096386,,,,,,,,,3,"[3,1,4,1,3,1]",0.81,3,5,2,black,,,
,,,,,,,,,,,,,,,1,0,1,0,1,train57_vistrain2,2024-01-29_17h50.19.985,VisTraining2,2021.2.3,Win32,60.24096386,,,,,,,,,1,"[3,1,4,1,3,1]",0.27,3,5,2,black,,,
,,,,,,,,,,,,,,,2,0,2,0,1,train57_vistrain2,2024-01-29_17h50.19.985,VisTraining2,2021.2.3,Win32,60.24096386,,,,,,,,,4,"[3,1,4,1,3,1]",1.08,3,5,2,black,,,
,,,,,,,,,,,,,,,3,0,3,0,1,train57_vistrain2,2024-01-29_17h50.19.985,VisTraining2,2021.2.3,Win32,60.24096386,,,,,,,,,1,"[3,1,4,1,3,1]",0.27,3,5,2,black,,,
,,,,,,,,,,,,,,,4,0,4,0,1,train57_vistrain2,2024-01-29_17h50.19.985,VisTraining2,2021.2.3,Win32,60.24096386,,,,,,,,,3,"[3,1,4,1,3,1]",0.81,3,5,2,black,,,
,,,,,,,,,,,,,,,5,0,5,0,1,train57_vistrain2,2024-01-29_17h50.19.985,VisTraining2,2021.2.3,Win32,60.24096386,,,,,,,,,1,"[3,1,4,1,3,1]",0.27,3,5,2,black,,,
,,,,,,,,,,,,,,,6,0,6,0,1,train57_vistrain2,2024-01-29_17h50.19.985,VisTraining2,2021.2.3,Win32,60.24096386,,,,,,,,,3,"[3,1,4,3,1,1]",0.81,3,5,2,black,,,
,,,,,,,,,,,,,,,7,0,7,0,1,train57_vistrain2,2024-01-29_17h50.19.985,VisTraining2,2021.2.3,Win32,60.24096386,,,,,,,,,1,"[3,1,4,3,1,1]",0.27,3,5,2,black,,,
,,,,,,,,,,,,,,,8,0,8,0,1,train57_vistrain2,2024-01-29_17h50.19.985,VisTraining2,2021.2.3,Win32,60.24096386,,,,,,,,,4,"[3,1,4,3,1,1]",1.08,3,5,2,black,,,
,,,,,,,,,,,,,,,9,0,9,0,1,train57_vistrain2,2024-01-29_17h50.19.985,VisTraining2,2021.2.3,Win32,60.24096386,,,,,,,,,3,"[3,1,4,3,1,1]",0.81,3,5,2,black,,,
,,,,,,,,,,,,,,,10,0,10,0,1,train57_vistrain2,2024-01-29_17h50.19.985,VisTraining2,2021.2.3,Win32,60.24096386,,,,,,,,,1,"[3,1,4,3,1,1]",0.27,3,5,2,black,,,
,,,,,,,,,,,,,,,11,0,11,0,1,train57_vistrain2,2024-01-29_17h50.19.985,VisTraining2,2021.2.3,Win32,60.24096386,,,,,,,,,1,"[3,1,4,3,1,1]",0.27,3,5,2,black,,,
,,,,,,,,,,,,,,,12,0,12,0,1,train57_vistrain2,2024-01-29_17h50.19.985,VisTraining2,2021.2.3,Win32,60.24096386,,,,,,,,,3,"[3,1,4,1,3,1]",0.81,3,5,2,black,,,
,,,,,,,,,,,,,,,13,0,13,0,1,train57_vistrain2,2024-01-29_17h50.19.985,VisTraining2,2021.2.3,Win32,60.24096386,,,,,,,,,1,"[3,1,4,1,3,1]",0.27,3,5,2,black,,,
,,,,,,,,,,,,,,,14,0,14,0,1,train57_vistrain2,2024-01-29_17h50.19.985,VisTraining2,2021.2.3,Win32,60.24096386,,,,,,,,,4,"[3,1,4,1,3,1]",1.08,3,5,2,black,,,
,,,,,,,,,,,,,,,15,0,15,0,1,train57_vistrain2,2024-01-29_17h50.19.985,VisTraining2,2021.2.3,Win32,60.24096386,,,,,,,,,1,"[3,1,4,1,3,1]",0.27,3,5,2,black,,,
,,,,,,,,,,,,,,,16,0,16,0,1,train57_vistrain2,2024-01-29_17h50.19.985,VisTraining2,2021.2.3,Win32,60.24096386,,,,,,,,,3,"[3,1,4,1,3,1]",0.81,3,5,2,black,,,
,,,,,,,,,,,,,,,17,0,17,0,1,train57_vistrain2,2024-01-29_17h50.19.985,VisTraining2,2021.2.3,Win32,60.24096386,,,,,,,,,1,"[3,1,4,1,3,1]",0.27,3,5,2,black,,,
,,,,,,,,,,,,,,,,,,,,train57_vistrain2,2024-01-29_17h50.19.985,VisTraining2,2021.2.3,Win32,60.24096386,,,2,24,0,24,0,1,,,,,,,,0.9822,,
,,,,,,,,,,,,,,,0,0,0,0,1,train57_vistrain2,2024-01-29_17h50.19.985,VisTraining2,2021.2.3,Win32,60.24096386,,,,,,,,,3,"[3,1,2,1,1,1,3,1]",0.81,3,7,3,black,,,
,,,,,,,,,,,,,,,1,0,1,0,1,train57_vistrain2,2024-01-29_17h50.19.985,VisTraining2,2021.2.3,Win32,60.24096386,,,,,,,,,1,"[3,1,2,1,1,1,3,1]",0.27,3,7,3,black,,,
,,,,,,,,,,,,,,,2,0,2,0,1,train57_vistrain2,2024-01-29_17h50.19.985,VisTraining2,2021.2.3,Win32,60.24096386,,,,,,,,,2,"[3,1,2,1,1,1,3,1]",0.54,3,7,3,black,,,
,,,,,,,,,,,,,,,3,0,3,0,1,train57_vistrain2,2024-01-29_17h50.19.985,VisTraining2,2021.2.3,Win32,60.24096386,,,,,,,,,1,"[3,1,2,1,1,1,3,1]",0.27,3,7,3,black,,,
,,,,,,,,,,,,,,,4,0,4,0,1,train57_vistrain2,2024-01-29_17h50.19.985,VisTraining2,2021.2.3,Win32,60.24096386,,,,,,,,,1,"[3,1,2,1,1,1,3,1]",0.27,3,7,3,black,,,
,,,,,,,,,,,,,,,5,0,5,0,1,train57_vistrain2,2024-01-29_17h50.19.985,VisTraining2,2021.2.3,Win32,60.24096386,,,,,,,,,1,"[3,1,2,1,1,1,3,1]",0.27,3,7,3,black,,,
,,,,,,,,,,,,,,,6,0,6,0,1,train57_vistrain2,2024-01-29_17h50.19.985,VisTraining2,2021.2.3,Win32,60.24096386,,,,,,,,,3,"[3,1,2,1,1,1,3,1]",0.81,3,7,3,black,,,
,,,,,,,,,,,,,,,7,0,7,0,1,train57_vistrain2,2024-01-29_17h50.19.985,VisTraining2,2021.2.3,Win32,60.24096386,,,,,,,,,1,"[3,1,2,1,1,1,3,1]",0.27,3,7,3,black,,,
,,,,,,,,,,,,,,,8,0,8,0,1,train57_vistrain2,2024-01-29_17h50.19.985,VisTraining2,2021.2.3,Win32,60.24096386,,,,,,,,,3,"[3,1,2,1,1,1,3,1]",0.81,3,7,3,black,,,
,,,,,,,,,,,,,,,9,0,9,0,1,train57_vistrain2,2024-01-29_17h50.19.985,VisTraining2,2021.2.3,Win32,60.24096386,,,,,,,,,1,"[3,1,2,1,1,1,3,1]",0.27,3,7,3,black,,,
,,,,,,,,,,,,,,,10,0,10,0,1,train57_vistrain2,2024-01-29_17h50.19.985,VisTraining2,2021.2.3,Win32,60.24096386,,,,,,,,,2,"[3,1,2,1,1,1,3,1]",0.54,3,7,3,black,,,
,,,,,,,,,,,,,,,11,0,11,0,1,train57_vistrain2,2024-01-29_17h50.19.985,VisTraining2,2021.2.3,Win32,60.24096386,,,,,,,,,1,"[3,1,2,1,1,1,3,1]",0.27,3,7,3,black,,,
,,,,,,,,,,,,,,,12,0,12,0,1,train57_vistrain2,2024-01-29_17h50.19.985,VisTraining2,2021.2.3,Win32,60.24096386,,,,,,,,,1,"[3,1,2,1,1,1,3,1]",0.27,3,7,3,black,,,
,,,,,,,,,,,,,,,13,0,13,0,1,train57_vistrain2,2024-01-29_17h50.19.985,VisTraining2,2021.2.3,Win32,60.24096386,,,,,,,,,1,"[3,1,2,1,1,1,3,1]",0.27,3,7,3,black,,,
,,,,,,,,,,,,,,,14,0,14,0,1,train57_vistrain2,2024-01-29_17h50.19.985,VisTraining2,2021.2.3,Win32,60.24096386,,,,,,,,,3,"[3,1,2,1,1,1,3,1]",0.81,3,7,3,black,,,
,,,,,,,,,,,,,,,15,0,15,0,1,train57_vistrain2,2024-01-29_17h50.19.985,VisTraining2,2021.2.3,Win32,60.24096386,,,,,,,,,1,"[3,1,2,1,1,1,3,1]",0.27,3,7,3,black,,,
,,,,,,,,,,,,,,,16,0,16,0,1,train57_vistrain2,2024-01-29_17h50.19.985,VisTraining2,2021.2.3,Win32,60.24096386,,,,,,,,,3,"[3,1,2,1,1,3,1,1]",0.81,3,7,3,black,,,
,,,,,,,,,,,,,,,17,0,17,0,1,train57_vistrain2,2024-01-29_17h50.19.985,VisTraining2,2021.2.3,Win32,60.24096386,,,,,,,,,1,"[3,1,2,1,1,3,1,1]",0.27,3,7,3,black,,,
,,,,,,,,,,,,,,,18,0,18,0,1,train57_vistrain2,2024-01-29_17h50.19.985,VisTraining2,2021.2.3,Win32,60.24096386,,,,,,,,,2,"[3,1,2,1,1,3,1,1]",0.54,3,7,3,black,,,
,,,,,,,,,,,,,,,19,0,19,0,1,train57_vistrain2,2024-01-29_17h50.19.985,VisTraining2,2021.2.3,Win32,60.24096386,,,,,,,,,1,"[3,1,2,1,1,3,1,1]",0.27,3,7,3,black,,,
,,,,,,,,,,,,,,,20,0,20,0,1,train57_vistrain2,2024-01-29_17h50.19.985,VisTraining2,2021.2.3,Win32,60.24096386,,,,,,,,,1,"[3,1,2,1,1,3,1,1]",0.27,3,7,3,black,,,
,,,,,,,,,,,,,,,21,0,21,0,1,train57_vistrain2,2024-01-29_17h50.19.985,VisTraining2,2021.2.3,Win32,60.24096386,,,,,,,,,3,"[3,1,2,1,1,3,1,1]",0.81,3,7,3,black,,,
,,,,,,,,,,,,,,,22,0,22,0,1,train57_vistrain2,2024-01-29_17h50.19.985,VisTraining2,2021.2.3,Win32,60.24096386,,,,,,,,,1,"[3,1,2,1,1,3,1,1]",0.27,3,7,3,black,,,
,,,,,,,,,,,,,,,23,0,23,0,1,train57_vistrain2,2024-01-29_17h50.19.985,VisTraining2,2021.2.3,Win32,60.24096386,,,,,,,,,1,"[3,1,2,1,1,3,1,1]",0.27,3,7,3,black,,,
,,,,,,,,,,,,,,,,,,,,train57_vistrain2,2024-01-29_17h50.19.985,VisTraining2,2021.2.3,Win32,60.24096386,,,3,25,0,25,0,1,,,,,,,,0.3007,,
,,,,,,,,,,,,,,,0,0,0,0,1,train57_vistrain2,2024-01-29_17h50.19.985,VisTraining2,2021.2.3,Win32,60.24096386,,,,,,,,,3,"[3,1,3,1,2,2,1]",0.81,3,6,1,black,,,
,,,,,,,,,,,,,,,1,0,1,0,1,train57_vistrain2,2024-01-29_17h50.19.985,VisTraining2,2021.2.3,Win32,60.24096386,,,,,,,,,1,"[3,1,3,1,2,2,1]",0.27,3,6,1,black,,,
,,,,,,,,,,,,,,,2,0,2,0,1,train57_vistrain2,2024-01-29_17h50.19.985,VisTraining2,2021.2.3,Win32,60.24096386,,,,,,,,,3,"[3,1,3,1,2,2,1]",0.81,3,6,1,black,,,
,,,,,,,,,,,,,,,3,0,3,0,1,train57_vistrain2,2024-01-29_17h50.19.985,VisTraining2,2021.2.3,Win32,60.24096386,,,,,,,,,1,"[3,1,3,1,2,2,1]",0.27,3,6,1,black,,,
,,,,,,,,,,,,,,,4,0,4,0,1,train57_vistrain2,2024-01-29_17h50.19.985,VisTraining2,2021.2.3,Win32,60.24096386,,,,,,,,,2,"[3,1,3,1,2,2,1]",0.54,3,6,1,black,,,
,,,,,,,,,,,,,,,5,0,5,0,1,train57_vistrain2,2024-01-29_17h50.19.985,VisTraining2,2021.2.3,Win32,60.24096386,,,,,,,,,2,"[3,1,3,1,2,2,1]",0.54,3,6,1,black,,,
,,,,,,,,,,,,,,,6,0,6,0,1,train57_vistrain2,2024-01-29_17h50.19.985,VisTraining2,2021.2.3,Win32,60.24096386,,,,,,,,,1,"[3,1,3,1,2,2,1]",0.27,3,6,1,black,,,
,,,,,,,,,,,,,,,7,0,7,0,1,train57_vistrain2,2024-01-29_17h50.19.985,VisTraining2,2021.2.3,Win32,60.24096386,,,,,,,,,3,"[3,1,1,3,2,2,1]",0.81,3,6,1,black,,,
,,,,,,,,,,,,,,,8,0,8,0,1,train57_vistrain2,2024-01-29_17h50.19.985,VisTraining2,2021.2.3,Win32,60.24096386,,,,,,,,,1,"[3,1,1,3,2,2,1]",0.27,3,6,1,black,,,
,,,,,,,,,,,,,,,9,0,9,0,1,train57_vistrain2,2024-01-29_17h50.19.985,VisTraining2,2021.2.3,Win32,60.24096386,,,,,,,,,1,"[3,1,1,3,2,2,1]",0.27,3,6,1,black,,,
,,,,,,,,,,,,,,,10,0,10,0,1,train57_vistrain2,2024-01-29_17h50.19.985,VisTraining2,2021.2.3,Win32,60.24096386,,,,,,,,,3,"[3,1,1,3,2,2,1]",0.81,3,6,1,black,,,
,,,,,,,,,,,,,,,11,0,11,0,1,train57_vistrain2,2024-01-29_17h50.19.985,VisTraining2,2021.2.3,Win32,60.24096386,,,,,,,,,2,"[3,1,1,3,2,2,1]",0.54,3,6,1,black,,,
,,,,,,,,,,,,,,,12,0,12,0,1,train57_vistrain2,2024-01-29_17h50.19.985,VisTraining2,2021.2.3,Win32,60.24096386,,,,,,,,,2,"[3,1,1,3,2,2,1]",0.54,3,6,1,black,,,
,,,,,,,,,,,,,,,13,0,13,0,1,train57_vistrain2,2024-01-29_17h50.19.985,VisTraining2,2021.2.3,Win32,60.24096386,,,,,,,,,1,"[3,1,1,3,2,2,1]",0.27,3,6,1,black,,,
,,,,,,,,,,,,,,,14,0,14,0,1,train57_vistrain2,2024-01-29_17h50.19.985,VisTraining2,2021.2.3,Win32,60.24096386,,,,,,,,,3,"[3,1,1,3,2,2,1]",0.81,3,6,1,black,,,
,,,,,,,,,,,,,,,15,0,15,0,1,train57_vistrain2,2024-01-29_17h50.19.985,VisTraining2,2021.2.3,Win32,60.24096386,,,,,,,,,1,"[3,1,1,3,2,2,1]",0.27,3,6,1,black,,,
,,,,,,,,,,,,,,,16,0,16,0,1,train57_vistrain2,2024-01-29_17h50.19.985,VisTraining2,2021.2.3,Win32,60.24096386,,,,,,,,,1,"[3,1,1,3,2,2,1]",0.27,3,6,1,black,,,
,,,,,,,,,,,,,,,17,0,17,0,1,train57_vistrain2,2024-01-29_17h50.19.985,VisTraining2,2021.2.3,Win32,60.24096386,,,,,,,,,3,"[3,1,1,3,2,2,1]",0.81,3,6,1,black,,,
,,,,,,,,,,,,,,,18,0,18,0,1,train57_vistrain2,2024-01-29_17h50.19.985,VisTraining2,2021.2.3,Win32,60.24096386,,,,,,,,,2,"[3,1,1,3,2,2,1]",0.54,3,6,1,black,,,
,,,,,,,,,,,,,,,19,0,19,0,1,train57_vistrain2,2024-01-29_17h50.19.985,VisTraining2,2021.2.3,Win32,60.24096386,,,,,,,,,2,"[3,1,1,3,2,2,1]",0.54,3,6,1,black,,,
,,,,,,,,,,,,,,,20,0,20,0,1,train57_vistrain2,2024-01-29_17h50.19.985,VisTraining2,2021.2.3,Win32,60.24096386,,,,,,,,,1,"[3,1,1,3,2,2,1]",0.27,3,6,1,black,,,
,,,,,,,,,,,,,,,,,,,,train57_vistrain2,2024-01-29_17h50.19.985,VisTraining2,2021.2.3,Win32,60.24096386,,,2,26,0,26,0,1,,,,,,,,0.3457,,
,,,,,,,,,,,,,,,0,0,0,0,1,train57_vistrain2,2024-01-29_17h50.19.985,VisTraining2,2021.2.3,Win32,60.24096386,,,,,,,,,3,"[3,1,2,2,1,1,2,1]",0.75,2,7,2,black,,,
,,,,,,,,,,,,,,,1,0,1,0,1,train57_vistrain2,2024-01-29_17h50.19.985,VisTraining2,2021.2.3,Win32,60.24096386,,,,,,,,,1,"[3,1,2,2,1,1,2,1]",0.25,2,7,2,black,,,
,,,,,,,,,,,,,,,2,0,2,0,1,train57_vistrain2,2024-01-29_17h50.19.985,VisTraining2,2021.2.3,Win32,60.24096386,,,,,,,,,2,"[3,1,2,2,1,1,2,1]",0.5,2,7,2,black,,,
,,,,,,,,,,,,,,,3,0,3,0,1,train57_vistrain2,2024-01-29_17h50.19.985,VisTraining2,2021.2.3,Win32,60.24096386,,,,,,,,,2,"[3,1,2,2,1,1,2,1]",0.5,2,7,2,black,,,
,,,,,,,,,,,,,,,4,0,4,0,1,train57_vistrain2,2024-01-29_17h50.19.985,VisTraining2,2021.2.3,Win32,60.24096386,,,,,,,,,1,"[3,1,2,2,1,1,2,1]",0.25,2,7,2,black,,,
,,,,,,,,,,,,,,,5,0,5,0,1,train57_vistrain2,2024-01-29_17h50.19.985,VisTraining2,2021.2.3,Win32,60.24096386,,,,,,,,,1,"[3,1,2,2,1,1,2,1]",0.25,2,7,2,black,,,
,,,,,,,,,,,,,,,6,0,6,0,1,train57_vistrain2,2024-01-29_17h50.19.985,VisTraining2,2021.2.3,Win32,60.24096386,,,,,,,,,2,"[3,1,2,2,1,1,2,1]",0.5,2,7,2,black,,,
,,,,,,,,,,,,,,,7,0,7,0,1,train57_vistrain2,2024-01-29_17h50.19.985,VisTraining2,2021.2.3,Win32,60.24096386,,,,,,,,,1,"[3,1,2,2,1,1,2,1]",0.25,2,7,2,black,,,
,,,,,,,,,,,,,,,8,0,8,0,1,train57_vistrain2,2024-01-29_17h50.19.985,VisTraining2,2021.2.3,Win32,60.24096386,,,,,,,,,1,"[1,3,2,2,1,1,2,1]",0.25,2,7,2,black,,,
,,,,,,,,,,,,,,,9,0,9,0,1,train57_vistrain2,2024-01-29_17h50.19.985,VisTraining2,2021.2.3,Win32,60.24096386,,,,,,,,,3,"[1,3,2,2,1,1,2,1]",0.75,2,7,2,black,,,
,,,,,,,,,,,,,,,10,0,10,0,1,train57_vistrain2,2024-01-29_17h50.19.985,VisTraining2,2021.2.3,Win32,60.24096386,,,,,,,,,2,"[1,3,2,2,1,1,2,1]",0.5,2,7,2,black,,,
,,,,,,,,,,,,,,,11,0,11,0,1,train57_vistrain2,2024-01-29_17h50.19.985,VisTraining2,2021.2.3,Win32,60.24096386,,,,,,,,,2,"[1,3,2,2,1,1,2,1]",0.5,2,7,2,black,,,
,,,,,,,,,,,,,,,12,0,12,0,1,train57_vistrain2,2024-01-29_17h50.19.985,VisTraining2,2021.2.3,Win32,60.24096386,,,,,,,,,1,"[1,3,2,2,1,1,2,1]",0.25,2,7,2,black,,,
,,,,,,,,,,,,,,,13,0,13,0,1,train57_vistrain2,2024-01-29_17h50.19.985,VisTraining2,2021.2.3,Win32,60.24096386,,,,,,,,,1,"[1,3,2,2,1,1,2,1]",0.25,2,7,2,black,,,
,,,,,,,,,,,,,,,14,0,14,0,1,train57_vistrain2,2024-01-29_17h50.19.985,VisTraining2,2021.2.3,Win32,60.24096386,,,,,,,,,2,"[1,3,2,2,1,1,2,1]",0.5,2,7,2,black,,,
,,,,,,,,,,,,,,,15,0,15,0,1,train57_vistrain2,2024-01-29_17h50.19.985,VisTraining2,2021.2.3,Win32,60.24096386,,,,,,,,,1,"[1,3,2,2,1,1,2,1]",0.25,2,7,2,black,,,
,,,,,,,,,,,,,,,16,0,16,0,1,train57_vistrain2,2024-01-29_17h50.19.985,VisTraining2,2021.2.3,Win32,60.24096386,,,,,,,,,3,"[3,1,2,2,1,1,2,1]",0.75,2,7,2,black,,,
,,,,,,,,,,,,,,,17,0,17,0,1,train57_vistrain2,2024-01-29_17h50.19.985,VisTraining2,2021.2.3,Win32,60.24096386,,,,,,,,,1,"[3,1,2,2,1,1,2,1]",0.25,2,7,2,black,,,
,,,,,,,,,,,,,,,18,0,18,0,1,train57_vistrain2,2024-01-29_17h50.19.985,VisTraining2,2021.2.3,Win32,60.24096386,,,,,,,,,2,"[3,1,2,2,1,1,2,1]",0.5,2,7,2,black,,,
,,,,,,,,,,,,,,,19,0,19,0,1,train57_vistrain2,2024-01-29_17h50.19.985,VisTraining2,2021.2.3,Win32,60.24096386,,,,,,,,,2,"[3,1,2,2,1,1,2,1]",0.5,2,7,2,black,,,
,,,,,,,,,,,,,,,20,0,20,0,1,train57_vistrain2,2024-01-29_17h50.19.985,VisTraining2,2021.2.3,Win32,60.24096386,,,,,,,,,1,"[3,1,2,2,1,1,2,1]",0.25,2,7,2,black,,,
,,,,,,,,,,,,,,,21,0,21,0,1,train57_vistrain2,2024-01-29_17h50.19.985,VisTraining2,2021.2.3,Win32,60.24096386,,,,,,,,,1,"[3,1,2,2,1,1,2,1]",0.25,2,7,2,black,,,
,,,,,,,,,,,,,,,22,0,22,0,1,train57_vistrain2,2024-01-29_17h50.19.985,VisTraining2,2021.2.3,Win32,60.24096386,,,,,,,,,2,"[3,1,2,2,1,1,2,1]",0.5,2,7,2,black,,,
,,,,,,,,,,,,,,,23,0,23,0,1,train57_vistrain2,2024-01-29_17h50.19.985,VisTraining2,2021.2.3,Win32,60.24096386,,,,,,,,,1,"[3,1,2,2,1,1,2,1]",0.25,2,7,2,black,,,
,,,,,,,,,,,,,,,,,,,,train57_vistrain2,2024-01-29_17h50.19.985,VisTraining2,2021.2.3,Win32,60.24096386,,,1,27,0,27,0,1,,,,,,,,0.2509,,
,,,,,,,,,,,,,,,0,0,0,0,1,train57_vistrain2,2024-01-29_17h50.19.985,VisTraining2,2021.2.3,Win32,60.24096386,,,,,,,,,3,"[3,1,4,3,1,1]",0.75,2,5,1,black,,,
,,,,,,,,,,,,,,,1,0,1,0,1,train57_vistrain2,2024-01-29_17h50.19.985,VisTraining2,2021.2.3,Win32,60.24096386,,,,,,,,,1,"[3,1,4,3,1,1]",0.25,2,5,1,black,,,
