key_resp.keys,key_resp.rt,key_resp_2.keys,key_resp_2.rt,X Scale,Y Scale,key_resp_3.keys,key_resp_3.rt,Pr_SEQvis1,Pr_NumberOfIntervals,Pr_SEQvis3,Pr_Speed,Pr_Pattern,Pr_Diff,Pr_Color,trials.thisRepN,trials.thisTrialN,trials.thisN,trials.thisIndex,trials.ran,participant,date,expName,psychopyVersion,OS,frameRate,key_resp_4.keys,key_resp_4.rt,key_resp_5.keys,trials_2.thisRepN,trials_2.thisTrialN,trials_2.thisN,trials_2.thisIndex,trials_2.ran,SEQvis1,NumberOfIntervals,SEQvis3,Speed,Pattern,Diff,Color,key_resp_5.rt,key_resp_6.keys,key_resp_6.rt
space,1.8677,space,0.9584,0.0469,0.0473,space,3.6175,2,"[2,1,1,3,1,1,3,1]",0.5,2,7,2,green,0,0,0,0,1,train57_vistrain2,2024-01-21_22h46.36.746,VisTraining2,2021.2.3,Win32,59.17159763,,,,,,,,,,,,,,,,,,
,,,,,,,,1,"[2,1,1,3,1,1,3,1]",0.25,2,7,2,green,1,0,1,0,1,train57_vistrain2,2024-01-21_22h46.36.746,VisTraining2,2021.2.3,Win32,59.17159763,,,,,,,,,,,,,,,,,,
,,,,,,,,1,"[2,1,1,3,1,1,3,1]",0.25,2,7,2,green,2,0,2,0,1,train57_vistrain2,2024-01-21_22h46.36.746,VisTraining2,2021.2.3,Win32,59.17159763,,,,,,,,,,,,,,,,,,
,,,,,,,,3,"[2,1,1,3,1,1,3,1]",0.75,2,7,2,green,3,0,3,0,1,train57_vistrain2,2024-01-21_22h46.36.746,VisTraining2,2021.2.3,Win32,59.17159763,,,,,,,,,,,,,,,,,,
,,,,,,,,1,"[2,1,1,3,1,1,3,1]",0.25,2,7,2,green,4,0,4,0,1,train57_vistrain2,2024-01-21_22h46.36.746,VisTraining2,2021.2.3,Win32,59.17159763,,,,,,,,,,,,,,,,,,
,,,,,,,,1,"[2,1,1,3,1,1,3,1]",0.25,2,7,2,green,5,0,5,0,1,train57_vistrain2,2024-01-21_22h46.36.746,VisTraining2,2021.2.3,Win32,59.17159763,,,,,,,,,,,,,,,,,,
,,,,,,,,3,"[2,1,1,3,1,1,3,1]",0.75,2,7,2,green,6,0,6,0,1,train57_vistrain2,2024-01-21_22h46.36.746,VisTraining2,2021.2.3,Win32,59.17159763,,,,,,,,,,,,,,,,,,
,,,,,,,,1,"[2,1,1,3,1,1,3,1]",0.25,2,7,2,green,7,0,7,0,1,train57_vistrain2,2024-01-21_22h46.36.746,VisTraining2,2021.2.3,Win32,59.17159763,,,,,,,,,,,,,,,,,,
,,,,,,,,2,"[2,1,1,3,1,3,1,1]",0.5,2,7,2,green,8,0,8,0,1,train57_vistrain2,2024-01-21_22h46.36.746,VisTraining2,2021.2.3,Win32,59.17159763,,,,,,,,,,,,,,,,,,
,,,,,,,,1,"[2,1,1,3,1,3,1,1]",0.25,2,7,2,green,9,0,9,0,1,train57_vistrain2,2024-01-21_22h46.36.746,VisTraining2,2021.2.3,Win32,59.17159763,,,,,,,,,,,,,,,,,,
,,,,,,,,1,"[2,1,1,3,1,3,1,1]",0.25,2,7,2,green,10,0,10,0,1,train57_vistrain2,2024-01-21_22h46.36.746,VisTraining2,2021.2.3,Win32,59.17159763,,,,,,,,,,,,,,,,,,
,,,,,,,,3,"[2,1,1,3,1,3,1,1]",0.75,2,7,2,green,11,0,11,0,1,train57_vistrain2,2024-01-21_22h46.36.746,VisTraining2,2021.2.3,Win32,59.17159763,,,,,,,,,,,,,,,,,,
,,,,,,,,1,"[2,1,1,3,1,3,1,1]",0.25,2,7,2,green,12,0,12,0,1,train57_vistrain2,2024-01-21_22h46.36.746,VisTraining2,2021.2.3,Win32,59.17159763,,,,,,,,,,,,,,,,,,
,,,,,,,,3,"[2,1,1,3,1,3,1,1]",0.75,2,7,2,green,13,0,13,0,1,train57_vistrain2,2024-01-21_22h46.36.746,VisTraining2,2021.2.3,Win32,59.17159763,,,,,,,,,,,,,,,,,,
,,,,,,,,1,"[2,1,1,3,1,3,1,1]",0.25,2,7,2,green,14,0,14,0,1,train57_vistrain2,2024-01-21_22h46.36.746,VisTraining2,2021.2.3,Win32,59.17159763,,,,,,,,,,,,,,,,,,
,,,,,,,,1,"[2,1,1,3,1,3,1,1]",0.25,2,7,2,green,15,0,15,0,1,train57_vistrain2,2024-01-21_22h46.36.746,VisTraining2,2021.2.3,Win32,59.17159763,,,,,,,,,,,,,,,,,,
,,,,,,,,2,"[2,1,1,3,1,1,3,1]",0.5,2,7,2,green,16,0,16,0,1,train57_vistrain2,2024-01-21_22h46.36.746,VisTraining2,2021.2.3,Win32,59.17159763,,,,,,,,,,,,,,,,,,
,,,,,,,,1,"[2,1,1,3,1,1,3,1]",0.25,2,7,2,green,17,0,17,0,1,train57_vistrain2,2024-01-21_22h46.36.746,VisTraining2,2021.2.3,Win32,59.17159763,,,,,,,,,,,,,,,,,,
,,,,,,,,1,"[2,1,1,3,1,1,3,1]",0.25,2,7,2,green,18,0,18,0,1,train57_vistrain2,2024-01-21_22h46.36.746,VisTraining2,2021.2.3,Win32,59.17159763,,,,,,,,,,,,,,,,,,
,,,,,,,,3,"[2,1,1,3,1,1,3,1]",0.75,2,7,2,green,19,0,19,0,1,train57_vistrain2,2024-01-21_22h46.36.746,VisTraining2,2021.2.3,Win32,59.17159763,,,,,,,,,,,,,,,,,,
,,,,,,,,1,"[2,1,1,3,1,1,3,1]",0.25,2,7,2,green,20,0,20,0,1,train57_vistrain2,2024-01-21_22h46.36.746,VisTraining2,2021.2.3,Win32,59.17159763,,,,,,,,,,,,,,,,,,
,,,,,,,,1,"[2,1,1,3,1,1,3,1]",0.25,2,7,2,green,21,0,21,0,1,train57_vistrain2,2024-01-21_22h46.36.746,VisTraining2,2021.2.3,Win32,59.17159763,,,,,,,,,,,,,,,,,,
,,,,,,,,3,"[2,1,1,3,1,1,3,1]",0.75,2,7,2,green,22,0,22,0,1,train57_vistrain2,2024-01-21_22h46.36.746,VisTraining2,2021.2.3,Win32,59.17159763,,,,,,,,,,,,,,,,,,
,,,,,,,,1,"[2,1,1,3,1,1,3,1]",0.25,2,7,2,green,23,0,23,0,1,train57_vistrain2,2024-01-21_22h46.36.746,VisTraining2,2021.2.3,Win32,59.17159763,,,,,,,,,,,,,,,,,,
,,,,,,,,,,,,,,,,,,,,train57_vistrain2,2024-01-21_22h46.36.746,VisTraining2,2021.2.3,Win32,59.17159763,g,2.7826,,0,0,0,0,1,,,,,,,,,,
,,,,,,space,58.6528,,,,,,,,0,0,0,0,1,train57_vistrain2,2024-01-21_22h46.36.746,VisTraining2,2021.2.3,Win32,59.17159763,,,,,,,,,3,"[3,1,2,1,1,1,3,1]",0.75,2,7,2,black,,,
,,,,,,,,,,,,,,,1,0,1,0,1,train57_vistrain2,2024-01-21_22h46.36.746,VisTraining2,2021.2.3,Win32,59.17159763,,,,,,,,,1,"[3,1,2,1,1,1,3,1]",0.25,2,7,2,black,,,
,,,,,,,,,,,,,,,2,0,2,0,1,train57_vistrain2,2024-01-21_22h46.36.746,VisTraining2,2021.2.3,Win32,59.17159763,,,,,,,,,2,"[3,1,2,1,1,1,3,1]",0.5,2,7,2,black,,,
,,,,,,,,,,,,,,,3,0,3,0,1,train57_vistrain2,2024-01-21_22h46.36.746,VisTraining2,2021.2.3,Win32,59.17159763,,,,,,,,,1,"[3,1,2,1,1,1,3,1]",0.25,2,7,2,black,,,
,,,,,,,,,,,,,,,4,0,4,0,1,train57_vistrain2,2024-01-21_22h46.36.746,VisTraining2,2021.2.3,Win32,59.17159763,,,,,,,,,1,"[3,1,2,1,1,1,3,1]",0.25,2,7,2,black,,,
,,,,,,,,,,,,,,,5,0,5,0,1,train57_vistrain2,2024-01-21_22h46.36.746,VisTraining2,2021.2.3,Win32,59.17159763,,,,,,,,,1,"[3,1,2,1,1,1,3,1]",0.25,2,7,2,black,,,
,,,,,,,,,,,,,,,6,0,6,0,1,train57_vistrain2,2024-01-21_22h46.36.746,VisTraining2,2021.2.3,Win32,59.17159763,,,,,,,,,3,"[3,1,2,1,1,1,3,1]",0.75,2,7,2,black,,,
,,,,,,,,,,,,,,,7,0,7,0,1,train57_vistrain2,2024-01-21_22h46.36.746,VisTraining2,2021.2.3,Win32,59.17159763,,,,,,,,,1,"[3,1,2,1,1,1,3,1]",0.25,2,7,2,black,,,
,,,,,,,,,,,,,,,8,0,8,0,1,train57_vistrain2,2024-01-21_22h46.36.746,VisTraining2,2021.2.3,Win32,59.17159763,,,,,,,,,3,"[3,1,2,1,1,3,1,1]",0.75,2,7,2,black,,,
,,,,,,,,,,,,,,,9,0,9,0,1,train57_vistrain2,2024-01-21_22h46.36.746,VisTraining2,2021.2.3,Win32,59.17159763,,,,,,,,,1,"[3,1,2,1,1,3,1,1]",0.25,2,7,2,black,,,
,,,,,,,,,,,,,,,10,0,10,0,1,train57_vistrain2,2024-01-21_22h46.36.746,VisTraining2,2021.2.3,Win32,59.17159763,,,,,,,,,2,"[3,1,2,1,1,3,1,1]",0.5,2,7,2,black,,,
,,,,,,,,,,,,,,,11,0,11,0,1,train57_vistrain2,2024-01-21_22h46.36.746,VisTraining2,2021.2.3,Win32,59.17159763,,,,,,,,,1,"[3,1,2,1,1,3,1,1]",0.25,2,7,2,black,,,
,,,,,,,,,,,,,,,12,0,12,0,1,train57_vistrain2,2024-01-21_22h46.36.746,VisTraining2,2021.2.3,Win32,59.17159763,,,,,,,,,1,"[3,1,2,1,1,3,1,1]",0.25,2,7,2,black,,,
,,,,,,,,,,,,,,,13,0,13,0,1,train57_vistrain2,2024-01-21_22h46.36.746,VisTraining2,2021.2.3,Win32,59.17159763,,,,,,,,,3,"[3,1,2,1,1,3,1,1]",0.75,2,7,2,black,,,
,,,,,,,,,,,,,,,14,0,14,0,1,train57_vistrain2,2024-01-21_22h46.36.746,VisTraining2,2021.2.3,Win32,59.17159763,,,,,,,,,1,"[3,1,2,1,1,3,1,1]",0.25,2,7,2,black,,,
,,,,,,,,,,,,,,,15,0,15,0,1,train57_vistrain2,2024-01-21_22h46.36.746,VisTraining2,2021.2.3,Win32,59.17159763,,,,,,,,,1,"[3,1,2,1,1,3,1,1]",0.25,2,7,2,black,,,
,,,,,,,,,,,,,,,16,0,16,0,1,train57_vistrain2,2024-01-21_22h46.36.746,VisTraining2,2021.2.3,Win32,59.17159763,,,,,,,,,3,"[3,1,2,1,1,1,3,1]",0.75,2,7,2,black,,,
,,,,,,,,,,,,,,,17,0,17,0,1,train57_vistrain2,2024-01-21_22h46.36.746,VisTraining2,2021.2.3,Win32,59.17159763,,,,,,,,,1,"[3,1,2,1,1,1,3,1]",0.25,2,7,2,black,,,
,,,,,,,,,,,,,,,18,0,18,0,1,train57_vistrain2,2024-01-21_22h46.36.746,VisTraining2,2021.2.3,Win32,59.17159763,,,,,,,,,2,"[3,1,2,1,1,1,3,1]",0.5,2,7,2,black,,,
,,,,,,,,,,,,,,,19,0,19,0,1,train57_vistrain2,2024-01-21_22h46.36.746,VisTraining2,2021.2.3,Win32,59.17159763,,,,,,,,,1,"[3,1,2,1,1,1,3,1]",0.25,2,7,2,black,,,
,,,,,,,,,,,,,,,20,0,20,0,1,train57_vistrain2,2024-01-21_22h46.36.746,VisTraining2,2021.2.3,Win32,59.17159763,,,,,,,,,1,"[3,1,2,1,1,1,3,1]",0.25,2,7,2,black,,,
,,,,,,,,,,,,,,,21,0,21,0,1,train57_vistrain2,2024-01-21_22h46.36.746,VisTraining2,2021.2.3,Win32,59.17159763,,,,,,,,,1,"[3,1,2,1,1,1,3,1]",0.25,2,7,2,black,,,
,,,,,,,,,,,,,,,22,0,22,0,1,train57_vistrain2,2024-01-21_22h46.36.746,VisTraining2,2021.2.3,Win32,59.17159763,,,,,,,,,3,"[3,1,2,1,1,1,3,1]",0.75,2,7,2,black,,,
,,,,,,,,,,,,,,,23,0,23,0,1,train57_vistrain2,2024-01-21_22h46.36.746,VisTraining2,2021.2.3,Win32,59.17159763,,,,,,,,,1,"[3,1,2,1,1,1,3,1]",0.25,2,7,2,black,,,
,,,,,,,,,,,,,,,,,,,,train57_vistrain2,2024-01-21_22h46.36.746,VisTraining2,2021.2.3,Win32,59.17159763,,,3,1,0,1,0,1,,,,,,,,31.8358,,
,,,,,,,,,,,,,,,0,0,0,0,1,train57_vistrain2,2024-01-21_22h46.36.746,VisTraining2,2021.2.3,Win32,59.17159763,,,,,,,,,3,"[3,1,4,3,1,1]",0.81,3,5,1,black,,,
,,,,,,,,,,,,,,,1,0,1,0,1,train57_vistrain2,2024-01-21_22h46.36.746,VisTraining2,2021.2.3,Win32,59.17159763,,,,,,,,,1,"[3,1,4,3,1,1]",0.27,3,5,1,black,,,
,,,,,,,,,,,,,,,2,0,2,0,1,train57_vistrain2,2024-01-21_22h46.36.746,VisTraining2,2021.2.3,Win32,59.17159763,,,,,,,,,4,"[3,1,4,3,1,1]",1.08,3,5,1,black,,,
,,,,,,,,,,,,,,,3,0,3,0,1,train57_vistrain2,2024-01-21_22h46.36.746,VisTraining2,2021.2.3,Win32,59.17159763,,,,,,,,,3,"[3,1,4,3,1,1]",0.81,3,5,1,black,,,
,,,,,,,,,,,,,,,4,0,4,0,1,train57_vistrain2,2024-01-21_22h46.36.746,VisTraining2,2021.2.3,Win32,59.17159763,,,,,,,,,1,"[3,1,4,3,1,1]",0.27,3,5,1,black,,,
,,,,,,,,,,,,,,,5,0,5,0,1,train57_vistrain2,2024-01-21_22h46.36.746,VisTraining2,2021.2.3,Win32,59.17159763,,,,,,,,,1,"[3,1,4,3,1,1]",0.27,3,5,1,black,,,
,,,,,,,,,,,,,,,6,0,6,0,1,train57_vistrain2,2024-01-21_22h46.36.746,VisTraining2,2021.2.3,Win32,59.17159763,,,,,,,,,3,"[3,1,4,1,3,1]",0.81,3,5,1,black,,,
,,,,,,,,,,,,,,,7,0,7,0,1,train57_vistrain2,2024-01-21_22h46.36.746,VisTraining2,2021.2.3,Win32,59.17159763,,,,,,,,,1,"[3,1,4,1,3,1]",0.27,3,5,1,black,,,
,,,,,,,,,,,,,,,8,0,8,0,1,train57_vistrain2,2024-01-21_22h46.36.746,VisTraining2,2021.2.3,Win32,59.17159763,,,,,,,,,4,"[3,1,4,1,3,1]",1.08,3,5,1,black,,,
,,,,,,,,,,,,,,,9,0,9,0,1,train57_vistrain2,2024-01-21_22h46.36.746,VisTraining2,2021.2.3,Win32,59.17159763,,,,,,,,,1,"[3,1,4,1,3,1]",0.27,3,5,1,black,,,
,,,,,,,,,,,,,,,10,0,10,0,1,train57_vistrain2,2024-01-21_22h46.36.746,VisTraining2,2021.2.3,Win32,59.17159763,,,,,,,,,3,"[3,1,4,1,3,1]",0.81,3,5,1,black,,,
,,,,,,,,,,,,,,,11,0,11,0,1,train57_vistrain2,2024-01-21_22h46.36.746,VisTraining2,2021.2.3,Win32,59.17159763,,,,,,,,,1,"[3,1,4,1,3,1]",0.27,3,5,1,black,,,
,,,,,,,,,,,,,,,12,0,12,0,1,train57_vistrain2,2024-01-21_22h46.36.746,VisTraining2,2021.2.3,Win32,59.17159763,,,,,,,,,3,"[3,1,4,1,3,1]",0.81,3,5,1,black,,,
,,,,,,,,,,,,,,,13,0,13,0,1,train57_vistrain2,2024-01-21_22h46.36.746,VisTraining2,2021.2.3,Win32,59.17159763,,,,,,,,,1,"[3,1,4,1,3,1]",0.27,3,5,1,black,,,
,,,,,,,,,,,,,,,14,0,14,0,1,train57_vistrain2,2024-01-21_22h46.36.746,VisTraining2,2021.2.3,Win32,59.17159763,,,,,,,,,4,"[3,1,4,1,3,1]",1.08,3,5,1,black,,,
,,,,,,,,,,,,,,,15,0,15,0,1,train57_vistrain2,2024-01-21_22h46.36.746,VisTraining2,2021.2.3,Win32,59.17159763,,,,,,,,,1,"[3,1,4,1,3,1]",0.27,3,5,1,black,,,
,,,,,,,,,,,,,,,16,0,16,0,1,train57_vistrain2,2024-01-21_22h46.36.746,VisTraining2,2021.2.3,Win32,59.17159763,,,,,,,,,3,"[3,1,4,1,3,1]",0.81,3,5,1,black,,,
,,,,,,,,,,,,,,,17,0,17,0,1,train57_vistrain2,2024-01-21_22h46.36.746,VisTraining2,2021.2.3,Win32,59.17159763,,,,,,,,,1,"[3,1,4,1,3,1]",0.27,3,5,1,black,,,
,,,,,,,,,,,,,,,,,,,,train57_vistrain2,2024-01-21_22h46.36.746,VisTraining2,2021.2.3,Win32,59.17159763,,,3,2,0,2,0,1,,,,,,,,28.7525,,
,,,,,,,,,,,,,,,0,0,0,0,1,train57_vistrain2,2024-01-21_22h46.36.746,VisTraining2,2021.2.3,Win32,59.17159763,,,,,,,,,2,"[2,1,1,3,1,4,1]",0.46,1,6,1,black,,,
,,,,,,,,,,,,,,,1,0,1,0,1,train57_vistrain2,2024-01-21_22h46.36.746,VisTraining2,2021.2.3,Win32,59.17159763,,,,,,,,,1,"[2,1,1,3,1,4,1]",0.23,1,6,1,black,,,
,,,,,,,,,,,,,,,2,0,2,0,1,train57_vistrain2,2024-01-21_22h46.36.746,VisTraining2,2021.2.3,Win32,59.17159763,,,,,,,,,1,"[2,1,1,3,1,4,1]",0.23,1,6,1,black,,,
,,,,,,,,,,,,,,,3,0,3,0,1,train57_vistrain2,2024-01-21_22h46.36.746,VisTraining2,2021.2.3,Win32,59.17159763,,,,,,,,,3,"[2,1,1,3,1,4,1]",0.69,1,6,1,black,,,
,,,,,,,,,,,,,,,4,0,4,0,1,train57_vistrain2,2024-01-21_22h46.36.746,VisTraining2,2021.2.3,Win32,59.17159763,,,,,,,,,1,"[2,1,1,3,1,4,1]",0.23,1,6,1,black,,,
,,,,,,,,,,,,,,,5,0,5,0,1,train57_vistrain2,2024-01-21_22h46.36.746,VisTraining2,2021.2.3,Win32,59.17159763,,,,,,,,,4,"[2,1,1,3,1,4,1]",0.92,1,6,1,black,,,
,,,,,,,,,,,,,,,6,0,6,0,1,train57_vistrain2,2024-01-21_22h46.36.746,VisTraining2,2021.2.3,Win32,59.17159763,,,,,,,,,1,"[2,1,1,3,1,4,1]",0.23,1,6,1,black,,,
,,,,,,,,,,,,,,,7,0,7,0,1,train57_vistrain2,2024-01-21_22h46.36.746,VisTraining2,2021.2.3,Win32,59.17159763,,,,,,,,,2,"[2,1,1,1,3,4,1]",0.46,1,6,1,black,,,
,,,,,,,,,,,,,,,8,0,8,0,1,train57_vistrain2,2024-01-21_22h46.36.746,VisTraining2,2021.2.3,Win32,59.17159763,,,,,,,,,1,"[2,1,1,1,3,4,1]",0.23,1,6,1,black,,,
,,,,,,,,,,,,,,,9,0,9,0,1,train57_vistrain2,2024-01-21_22h46.36.746,VisTraining2,2021.2.3,Win32,59.17159763,,,,,,,,,1,"[2,1,1,1,3,4,1]",0.23,1,6,1,black,,,
,,,,,,,,,,,,,,,10,0,10,0,1,train57_vistrain2,2024-01-21_22h46.36.746,VisTraining2,2021.2.3,Win32,59.17159763,,,,,,,,,1,"[2,1,1,1,3,4,1]",0.23,1,6,1,black,,,
,,,,,,,,,,,,,,,11,0,11,0,1,train57_vistrain2,2024-01-21_22h46.36.746,VisTraining2,2021.2.3,Win32,59.17159763,,,,,,,,,3,"[2,1,1,1,3,4,1]",0.69,1,6,1,black,,,
,,,,,,,,,,,,,,,12,0,12,0,1,train57_vistrain2,2024-01-21_22h46.36.746,VisTraining2,2021.2.3,Win32,59.17159763,,,,,,,,,4,"[2,1,1,1,3,4,1]",0.92,1,6,1,black,,,
,,,,,,,,,,,,,,,13,0,13,0,1,train57_vistrain2,2024-01-21_22h46.36.746,VisTraining2,2021.2.3,Win32,59.17159763,,,,,,,,,1,"[2,1,1,1,3,4,1]",0.23,1,6,1,black,,,
,,,,,,,,,,,,,,,14,0,14,0,1,train57_vistrain2,2024-01-21_22h46.36.746,VisTraining2,2021.2.3,Win32,59.17159763,,,,,,,,,2,"[2,1,1,1,3,4,1]",0.46,1,6,1,black,,,
,,,,,,,,,,,,,,,15,0,15,0,1,train57_vistrain2,2024-01-21_22h46.36.746,VisTraining2,2021.2.3,Win32,59.17159763,,,,,,,,,1,"[2,1,1,1,3,4,1]",0.23,1,6,1,black,,,
,,,,,,,,,,,,,,,16,0,16,0,1,train57_vistrain2,2024-01-21_22h46.36.746,VisTraining2,2021.2.3,Win32,59.17159763,,,,,,,,,1,"[2,1,1,1,3,4,1]",0.23,1,6,1,black,,,
,,,,,,,,,,,,,,,17,0,17,0,1,train57_vistrain2,2024-01-21_22h46.36.746,VisTraining2,2021.2.3,Win32,59.17159763,,,,,,,,,1,"[2,1,1,1,3,4,1]",0.23,1,6,1,black,,,
,,,,,,,,,,,,,,,18,0,18,0,1,train57_vistrain2,2024-01-21_22h46.36.746,VisTraining2,2021.2.3,Win32,59.17159763,,,,,,,,,3,"[2,1,1,1,3,4,1]",0.69,1,6,1,black,,,
,,,,,,,,,,,,,,,19,0,19,0,1,train57_vistrain2,2024-01-21_22h46.36.746,VisTraining2,2021.2.3,Win32,59.17159763,,,,,,,,,4,"[2,1,1,1,3,4,1]",0.92,1,6,1,black,,,
,,,,,,,,,,,,,,,20,0,20,0,1,train57_vistrain2,2024-01-21_22h46.36.746,VisTraining2,2021.2.3,Win32,59.17159763,,,,,,,,,1,"[2,1,1,1,3,4,1]",0.23,1,6,1,black,,,
,,,,,,,,,,,,,,,,,,,,train57_vistrain2,2024-01-21_22h46.36.746,VisTraining2,2021.2.3,Win32,59.17159763,,,1,3,0,3,0,1,,,,,,,,12.5692,,
,,,,,,,,,,,,,,,0,0,0,0,1,train57_vistrain2,2024-01-21_22h46.36.746,VisTraining2,2021.2.3,Win32,59.17159763,,,,,,,,,3,"[3,1,4,2,2,1]",0.75,2,5,2,black,,,
,,,,,,,,,,,,,,,1,0,1,0,1,train57_vistrain2,2024-01-21_22h46.36.746,VisTraining2,2021.2.3,Win32,59.17159763,,,,,,,,,1,"[3,1,4,2,2,1]",0.25,2,5,2,black,,,
,,,,,,,,,,,,,,,2,0,2,0,1,train57_vistrain2,2024-01-21_22h46.36.746,VisTraining2,2021.2.3,Win32,59.17159763,,,,,,,,,4,"[3,1,4,2,2,1]",1,2,5,2,black,,,
,,,,,,,,,,,,,,,3,0,3,0,1,train57_vistrain2,2024-01-21_22h46.36.746,VisTraining2,2021.2.3,Win32,59.17159763,,,,,,,,,2,"[3,1,4,2,2,1]",0.5,2,5,2,black,,,
,,,,,,,,,,,,,,,4,0,4,0,1,train57_vistrain2,2024-01-21_22h46.36.746,VisTraining2,2021.2.3,Win32,59.17159763,,,,,,,,,2,"[3,1,4,2,2,1]",0.5,2,5,2,black,,,
,,,,,,,,,,,,,,,5,0,5,0,1,train57_vistrain2,2024-01-21_22h46.36.746,VisTraining2,2021.2.3,Win32,59.17159763,,,,,,,,,1,"[3,1,4,2,2,1]",0.25,2,5,2,black,,,
,,,,,,,,,,,,,,,6,0,6,0,1,train57_vistrain2,2024-01-21_22h46.36.746,VisTraining2,2021.2.3,Win32,59.17159763,,,,,,,,,1,"[1,3,4,2,2,1]",0.25,2,5,2,black,,,
,,,,,,,,,,,,,,,7,0,7,0,1,train57_vistrain2,2024-01-21_22h46.36.746,VisTraining2,2021.2.3,Win32,59.17159763,,,,,,,,,3,"[1,3,4,2,2,1]",0.75,2,5,2,black,,,
,,,,,,,,,,,,,,,8,0,8,0,1,train57_vistrain2,2024-01-21_22h46.36.746,VisTraining2,2021.2.3,Win32,59.17159763,,,,,,,,,4,"[1,3,4,2,2,1]",1,2,5,2,black,,,
,,,,,,,,,,,,,,,9,0,9,0,1,train57_vistrain2,2024-01-21_22h46.36.746,VisTraining2,2021.2.3,Win32,59.17159763,,,,,,,,,2,"[1,3,4,2,2,1]",0.5,2,5,2,black,,,
,,,,,,,,,,,,,,,10,0,10,0,1,train57_vistrain2,2024-01-21_22h46.36.746,VisTraining2,2021.2.3,Win32,59.17159763,,,,,,,,,2,"[1,3,4,2,2,1]",0.5,2,5,2,black,,,
,,,,,,,,,,,,,,,11,0,11,0,1,train57_vistrain2,2024-01-21_22h46.36.746,VisTraining2,2021.2.3,Win32,59.17159763,,,,,,,,,1,"[1,3,4,2,2,1]",0.25,2,5,2,black,,,
,,,,,,,,,,,,,,,12,0,12,0,1,train57_vistrain2,2024-01-21_22h46.36.746,VisTraining2,2021.2.3,Win32,59.17159763,,,,,,,,,3,"[3,1,4,2,2,1]",0.75,2,5,2,black,,,
,,,,,,,,,,,,,,,13,0,13,0,1,train57_vistrain2,2024-01-21_22h46.36.746,VisTraining2,2021.2.3,Win32,59.17159763,,,,,,,,,1,"[3,1,4,2,2,1]",0.25,2,5,2,black,,,
,,,,,,,,,,,,,,,14,0,14,0,1,train57_vistrain2,2024-01-21_22h46.36.746,VisTraining2,2021.2.3,Win32,59.17159763,,,,,,,,,4,"[3,1,4,2,2,1]",1,2,5,2,black,,,
,,,,,,,,,,,,,,,15,0,15,0,1,train57_vistrain2,2024-01-21_22h46.36.746,VisTraining2,2021.2.3,Win32,59.17159763,,,,,,,,,2,"[3,1,4,2,2,1]",0.5,2,5,2,black,,,
,,,,,,,,,,,,,,,16,0,16,0,1,train57_vistrain2,2024-01-21_22h46.36.746,VisTraining2,2021.2.3,Win32,59.17159763,,,,,,,,,2,"[3,1,4,2,2,1]",0.5,2,5,2,black,,,
,,,,,,,,,,,,,,,17,0,17,0,1,train57_vistrain2,2024-01-21_22h46.36.746,VisTraining2,2021.2.3,Win32,59.17159763,,,,,,,,,1,"[3,1,4,2,2,1]",0.25,2,5,2,black,,,
,,,,,,,,,,,,,,,,,,,,train57_vistrain2,2024-01-21_22h46.36.746,VisTraining2,2021.2.3,Win32,59.17159763,,,1,4,0,4,0,1,,,,,,,,5.2831,,
,,,,,,,,,,,,,,,0,0,0,0,1,train57_vistrain2,2024-01-21_22h46.36.746,VisTraining2,2021.2.3,Win32,59.17159763,,,,,,,,,3,"[3,1,2,2,1,1,2,1]",0.81,3,7,3,black,,,
,,,,,,,,,,,,,,,1,0,1,0,1,train57_vistrain2,2024-01-21_22h46.36.746,VisTraining2,2021.2.3,Win32,59.17159763,,,,,,,,,1,"[3,1,2,2,1,1,2,1]",0.27,3,7,3,black,,,
,,,,,,,,,,,,,,,2,0,2,0,1,train57_vistrain2,2024-01-21_22h46.36.746,VisTraining2,2021.2.3,Win32,59.17159763,,,,,,,,,2,"[3,1,2,2,1,1,2,1]",0.54,3,7,3,black,,,
,,,,,,,,,,,,,,,3,0,3,0,1,train57_vistrain2,2024-01-21_22h46.36.746,VisTraining2,2021.2.3,Win32,59.17159763,,,,,,,,,2,"[3,1,2,2,1,1,2,1]",0.54,3,7,3,black,,,
,,,,,,,,,,,,,,,4,0,4,0,1,train57_vistrain2,2024-01-21_22h46.36.746,VisTraining2,2021.2.3,Win32,59.17159763,,,,,,,,,1,"[3,1,2,2,1,1,2,1]",0.27,3,7,3,black,,,
,,,,,,,,,,,,,,,5,0,5,0,1,train57_vistrain2,2024-01-21_22h46.36.746,VisTraining2,2021.2.3,Win32,59.17159763,,,,,,,,,1,"[3,1,2,2,1,1,2,1]",0.27,3,7,3,black,,,
,,,,,,,,,,,,,,,6,0,6,0,1,train57_vistrain2,2024-01-21_22h46.36.746,VisTraining2,2021.2.3,Win32,59.17159763,,,,,,,,,2,"[3,1,2,2,1,1,2,1]",0.54,3,7,3,black,,,
,,,,,,,,,,,,,,,7,0,7,0,1,train57_vistrain2,2024-01-21_22h46.36.746,VisTraining2,2021.2.3,Win32,59.17159763,,,,,,,,,1,"[3,1,2,2,1,1,2,1]",0.27,3,7,3,black,,,
,,,,,,,,,,,,,,,8,0,8,0,1,train57_vistrain2,2024-01-21_22h46.36.746,VisTraining2,2021.2.3,Win32,59.17159763,,,,,,,,,3,"[3,1,2,2,1,1,2,1]",0.81,3,7,3,black,,,
,,,,,,,,,,,,,,,9,0,9,0,1,train57_vistrain2,2024-01-21_22h46.36.746,VisTraining2,2021.2.3,Win32,59.17159763,,,,,,,,,1,"[3,1,2,2,1,1,2,1]",0.27,3,7,3,black,,,
,,,,,,,,,,,,,,,10,0,10,0,1,train57_vistrain2,2024-01-21_22h46.36.746,VisTraining2,2021.2.3,Win32,59.17159763,,,,,,,,,2,"[3,1,2,2,1,1,2,1]",0.54,3,7,3,black,,,
,,,,,,,,,,,,,,,11,0,11,0,1,train57_vistrain2,2024-01-21_22h46.36.746,VisTraining2,2021.2.3,Win32,59.17159763,,,,,,,,,2,"[3,1,2,2,1,1,2,1]",0.54,3,7,3,black,,,
,,,,,,,,,,,,,,,12,0,12,0,1,train57_vistrain2,2024-01-21_22h46.36.746,VisTraining2,2021.2.3,Win32,59.17159763,,,,,,,,,1,"[3,1,2,2,1,1,2,1]",0.27,3,7,3,black,,,
,,,,,,,,,,,,,,,13,0,13,0,1,train57_vistrain2,2024-01-21_22h46.36.746,VisTraining2,2021.2.3,Win32,59.17159763,,,,,,,,,1,"[3,1,2,2,1,1,2,1]",0.27,3,7,3,black,,,
,,,,,,,,,,,,,,,14,0,14,0,1,train57_vistrain2,2024-01-21_22h46.36.746,VisTraining2,2021.2.3,Win32,59.17159763,,,,,,,,,2,"[3,1,2,2,1,1,2,1]",0.54,3,7,3,black,,,
,,,,,,,,,,,,,,,15,0,15,0,1,train57_vistrain2,2024-01-21_22h46.36.746,VisTraining2,2021.2.3,Win32,59.17159763,,,,,,,,,1,"[3,1,2,2,1,1,2,1]",0.27,3,7,3,black,,,
,,,,,,,,,,,,,,,16,0,16,0,1,train57_vistrain2,2024-01-21_22h46.36.746,VisTraining2,2021.2.3,Win32,59.17159763,,,,,,,,,1,"[1,3,2,2,1,1,2,1]",0.27,3,7,3,black,,,
,,,,,,,,,,,,,,,17,0,17,0,1,train57_vistrain2,2024-01-21_22h46.36.746,VisTraining2,2021.2.3,Win32,59.17159763,,,,,,,,,3,"[1,3,2,2,1,1,2,1]",0.81,3,7,3,black,,,
,,,,,,,,,,,,,,,18,0,18,0,1,train57_vistrain2,2024-01-21_22h46.36.746,VisTraining2,2021.2.3,Win32,59.17159763,,,,,,,,,2,"[1,3,2,2,1,1,2,1]",0.54,3,7,3,black,,,
,,,,,,,,,,,,,,,19,0,19,0,1,train57_vistrain2,2024-01-21_22h46.36.746,VisTraining2,2021.2.3,Win32,59.17159763,,,,,,,,,2,"[1,3,2,2,1,1,2,1]",0.54,3,7,3,black,,,
,,,,,,,,,,,,,,,20,0,20,0,1,train57_vistrain2,2024-01-21_22h46.36.746,VisTraining2,2021.2.3,Win32,59.17159763,,,,,,,,,1,"[1,3,2,2,1,1,2,1]",0.27,3,7,3,black,,,
,,,,,,,,,,,,,,,21,0,21,0,1,train57_vistrain2,2024-01-21_22h46.36.746,VisTraining2,2021.2.3,Win32,59.17159763,,,,,,,,,1,"[1,3,2,2,1,1,2,1]",0.27,3,7,3,black,,,
,,,,,,,,,,,,,,,22,0,22,0,1,train57_vistrain2,2024-01-21_22h46.36.746,VisTraining2,2021.2.3,Win32,59.17159763,,,,,,,,,2,"[1,3,2,2,1,1,2,1]",0.54,3,7,3,black,,,
,,,,,,,,,,,,,,,23,0,23,0,1,train57_vistrain2,2024-01-21_22h46.36.746,VisTraining2,2021.2.3,Win32,59.17159763,,,,,,,,,1,"[1,3,2,2,1,1,2,1]",0.27,3,7,3,black,,,
,,,,,,,,,,,,,,,,,,,,train57_vistrain2,2024-01-21_22h46.36.746,VisTraining2,2021.2.3,Win32,59.17159763,,,3,5,0,5,0,1,,,,,,,,67.4693,,
,,,,,,,,,,,,,,,0,0,0,0,1,train57_vistrain2,2024-01-21_22h46.36.746,VisTraining2,2021.2.3,Win32,59.17159763,,,,,,,,,3,"[3,1,1,3,2,2,1]",0.69,1,6,3,black,,,
,,,,,,,,,,,,,,,1,0,1,0,1,train57_vistrain2,2024-01-21_22h46.36.746,VisTraining2,2021.2.3,Win32,59.17159763,,,,,,,,,1,"[3,1,1,3,2,2,1]",0.23,1,6,3,black,,,
,,,,,,,,,,,,,,,2,0,2,0,1,train57_vistrain2,2024-01-21_22h46.36.746,VisTraining2,2021.2.3,Win32,59.17159763,,,,,,,,,1,"[3,1,1,3,2,2,1]",0.23,1,6,3,black,,,
,,,,,,,,,,,,,,,3,0,3,0,1,train57_vistrain2,2024-01-21_22h46.36.746,VisTraining2,2021.2.3,Win32,59.17159763,,,,,,,,,3,"[3,1,1,3,2,2,1]",0.69,1,6,3,black,,,
,,,,,,,,,,,,,,,4,0,4,0,1,train57_vistrain2,2024-01-21_22h46.36.746,VisTraining2,2021.2.3,Win32,59.17159763,,,,,,,,,2,"[3,1,1,3,2,2,1]",0.46,1,6,3,black,,,
,,,,,,,,,,,,,,,5,0,5,0,1,train57_vistrain2,2024-01-21_22h46.36.746,VisTraining2,2021.2.3,Win32,59.17159763,,,,,,,,,2,"[3,1,1,3,2,2,1]",0.46,1,6,3,black,,,
,,,,,,,,,,,,,,,6,0,6,0,1,train57_vistrain2,2024-01-21_22h46.36.746,VisTraining2,2021.2.3,Win32,59.17159763,,,,,,,,,1,"[3,1,1,3,2,2,1]",0.23,1,6,3,black,,,
,,,,,,,,,,,,,,,7,0,7,0,1,train57_vistrain2,2024-01-21_22h46.36.746,VisTraining2,2021.2.3,Win32,59.17159763,,,,,,,,,3,"[3,1,1,3,2,2,1]",0.69,1,6,3,black,,,
,,,,,,,,,,,,,,,8,0,8,0,1,train57_vistrain2,2024-01-21_22h46.36.746,VisTraining2,2021.2.3,Win32,59.17159763,,,,,,,,,1,"[3,1,1,3,2,2,1]",0.23,1,6,3,black,,,
,,,,,,,,,,,,,,,9,0,9,0,1,train57_vistrain2,2024-01-21_22h46.36.746,VisTraining2,2021.2.3,Win32,59.17159763,,,,,,,,,1,"[3,1,1,3,2,2,1]",0.23,1,6,3,black,,,
,,,,,,,,,,,,,,,10,0,10,0,1,train57_vistrain2,2024-01-21_22h46.36.746,VisTraining2,2021.2.3,Win32,59.17159763,,,,,,,,,3,"[3,1,1,3,2,2,1]",0.69,1,6,3,black,,,
,,,,,,,,,,,,,,,11,0,11,0,1,train57_vistrain2,2024-01-21_22h46.36.746,VisTraining2,2021.2.3,Win32,59.17159763,,,,,,,,,2,"[3,1,1,3,2,2,1]",0.46,1,6,3,black,,,
,,,,,,,,,,,,,,,12,0,12,0,1,train57_vistrain2,2024-01-21_22h46.36.746,VisTraining2,2021.2.3,Win32,59.17159763,,,,,,,,,2,"[3,1,1,3,2,2,1]",0.46,1,6,3,black,,,
,,,,,,,,,,,,,,,13,0,13,0,1,train57_vistrain2,2024-01-21_22h46.36.746,VisTraining2,2021.2.3,Win32,59.17159763,,,,,,,,,1,"[3,1,1,3,2,2,1]",0.23,1,6,3,black,,,
,,,,,,,,,,,,,,,14,0,14,0,1,train57_vistrain2,2024-01-21_22h46.36.746,VisTraining2,2021.2.3,Win32,59.17159763,,,,,,,,,3,"[3,1,3,1,2,2,1]",0.69,1,6,3,black,,,
,,,,,,,,,,,,,,,15,0,15,0,1,train57_vistrain2,2024-01-21_22h46.36.746,VisTraining2,2021.2.3,Win32,59.17159763,,,,,,,,,1,"[3,1,3,1,2,2,1]",0.23,1,6,3,black,,,
,,,,,,,,,,,,,,,16,0,16,0,1,train57_vistrain2,2024-01-21_22h46.36.746,VisTraining2,2021.2.3,Win32,59.17159763,,,,,,,,,3,"[3,1,3,1,2,2,1]",0.69,1,6,3,black,,,
,,,,,,,,,,,,,,,17,0,17,0,1,train57_vistrain2,2024-01-21_22h46.36.746,VisTraining2,2021.2.3,Win32,59.17159763,,,,,,,,,1,"[3,1,3,1,2,2,1]",0.23,1,6,3,black,,,
,,,,,,,,,,,,,,,18,0,18,0,1,train57_vistrain2,2024-01-21_22h46.36.746,VisTraining2,2021.2.3,Win32,59.17159763,,,,,,,,,2,"[3,1,3,1,2,2,1]",0.46,1,6,3,black,,,
,,,,,,,,,,,,,,,19,0,19,0,1,train57_vistrain2,2024-01-21_22h46.36.746,VisTraining2,2021.2.3,Win32,59.17159763,,,,,,,,,2,"[3,1,3,1,2,2,1]",0.46,1,6,3,black,,,
,,,,,,,,,,,,,,,20,0,20,0,1,train57_vistrain2,2024-01-21_22h46.36.746,VisTraining2,2021.2.3,Win32,59.17159763,,,,,,,,,1,"[3,1,3,1,2,2,1]",0.23,1,6,3,black,,,
,,,,,,,,,,,,,,,,,,,,train57_vistrain2,2024-01-21_22h46.36.746,VisTraining2,2021.2.3,Win32,59.17159763,,,3,6,0,6,0,1,,,,,,,,14.263,,
,,,,,,,,,,,,,,,0,0,0,0,1,train57_vistrain2,2024-01-21_22h46.36.746,VisTraining2,2021.2.3,Win32,59.17159763,,,,,,,,,1,"[1,1,2,2,1,1,4,1]",0.23,1,7,3,black,,,
,,,,,,,,,,,,,,,1,0,1,0,1,train57_vistrain2,2024-01-21_22h46.36.746,VisTraining2,2021.2.3,Win32,59.17159763,,,,,,,,,1,"[1,1,2,2,1,1,4,1]",0.23,1,7,3,black,,,
,,,,,,,,,,,,,,,2,0,2,0,1,train57_vistrain2,2024-01-21_22h46.36.746,VisTraining2,2021.2.3,Win32,59.17159763,,,,,,,,,2,"[1,1,2,2,1,1,4,1]",0.46,1,7,3,black,,,
,,,,,,,,,,,,,,,3,0,3,0,1,train57_vistrain2,2024-01-21_22h46.36.746,VisTraining2,2021.2.3,Win32,59.17159763,,,,,,,,,2,"[1,1,2,2,1,1,4,1]",0.46,1,7,3,black,,,
,,,,,,,,,,,,,,,4,0,4,0,1,train57_vistrain2,2024-01-21_22h46.36.746,VisTraining2,2021.2.3,Win32,59.17159763,,,,,,,,,1,"[1,1,2,2,1,1,4,1]",0.23,1,7,3,black,,,
,,,,,,,,,,,,,,,5,0,5,0,1,train57_vistrain2,2024-01-21_22h46.36.746,VisTraining2,2021.2.3,Win32,59.17159763,,,,,,,,,1,"[1,1,2,2,1,1,4,1]",0.23,1,7,3,black,,,
,,,,,,,,,,,,,,,6,0,6,0,1,train57_vistrain2,2024-01-21_22h46.36.746,VisTraining2,2021.2.3,Win32,59.17159763,,,,,,,,,4,"[1,1,2,2,1,1,4,1]",0.92,1,7,3,black,,,
,,,,,,,,,,,,,,,7,0,7,0,1,train57_vistrain2,2024-01-21_22h46.36.746,VisTraining2,2021.2.3,Win32,59.17159763,,,,,,,,,1,"[1,1,2,2,1,1,4,1]",0.23,1,7,3,black,,,
,,,,,,,,,,,,,,,8,0,8,0,1,train57_vistrain2,2024-01-21_22h46.36.746,VisTraining2,2021.2.3,Win32,59.17159763,,,,,,,,,1,"[1,1,2,2,1,1,4,1]",0.23,1,7,3,black,,,
,,,,,,,,,,,,,,,9,0,9,0,1,train57_vistrain2,2024-01-21_22h46.36.746,VisTraining2,2021.2.3,Win32,59.17159763,,,,,,,,,1,"[1,1,2,2,1,1,4,1]",0.23,1,7,3,black,,,
,,,,,,,,,,,,,,,10,0,10,0,1,train57_vistrain2,2024-01-21_22h46.36.746,VisTraining2,2021.2.3,Win32,59.17159763,,,,,,,,,2,"[1,1,2,2,1,1,4,1]",0.46,1,7,3,black,,,
,,,,,,,,,,,,,,,11,0,11,0,1,train57_vistrain2,2024-01-21_22h46.36.746,VisTraining2,2021.2.3,Win32,59.17159763,,,,,,,,,2,"[1,1,2,2,1,1,4,1]",0.46,1,7,3,black,,,
,,,,,,,,,,,,,,,12,0,12,0,1,train57_vistrain2,2024-01-21_22h46.36.746,VisTraining2,2021.2.3,Win32,59.17159763,,,,,,,,,1,"[1,1,2,2,1,1,4,1]",0.23,1,7,3,black,,,
,,,,,,,,,,,,,,,13,0,13,0,1,train57_vistrain2,2024-01-21_22h46.36.746,VisTraining2,2021.2.3,Win32,59.17159763,,,,,,,,,1,"[1,1,2,2,1,1,4,1]",0.23,1,7,3,black,,,
,,,,,,,,,,,,,,,14,0,14,0,1,train57_vistrain2,2024-01-21_22h46.36.746,VisTraining2,2021.2.3,Win32,59.17159763,,,,,,,,,4,"[1,1,2,2,1,1,4,1]",0.92,1,7,3,black,,,
,,,,,,,,,,,,,,,15,0,15,0,1,train57_vistrain2,2024-01-21_22h46.36.746,VisTraining2,2021.2.3,Win32,59.17159763,,,,,,,,,1,"[1,1,2,2,1,1,4,1]",0.23,1,7,3,black,,,
,,,,,,,,,,,,,,,16,0,16,0,1,train57_vistrain2,2024-01-21_22h46.36.746,VisTraining2,2021.2.3,Win32,59.17159763,,,,,,,,,1,"[1,1,2,1,1,2,4,1]",0.23,1,7,3,black,,,
,,,,,,,,,,,,,,,17,0,17,0,1,train57_vistrain2,2024-01-21_22h46.36.746,VisTraining2,2021.2.3,Win32,59.17159763,,,,,,,,,1,"[1,1,2,1,1,2,4,1]",0.23,1,7,3,black,,,
,,,,,,,,,,,,,,,18,0,18,0,1,train57_vistrain2,2024-01-21_22h46.36.746,VisTraining2,2021.2.3,Win32,59.17159763,,,,,,,,,2,"[1,1,2,1,1,2,4,1]",0.46,1,7,3,black,,,
,,,,,,,,,,,,,,,19,0,19,0,1,train57_vistrain2,2024-01-21_22h46.36.746,VisTraining2,2021.2.3,Win32,59.17159763,,,,,,,,,1,"[1,1,2,1,1,2,4,1]",0.23,1,7,3,black,,,
,,,,,,,,,,,,,,,20,0,20,0,1,train57_vistrain2,2024-01-21_22h46.36.746,VisTraining2,2021.2.3,Win32,59.17159763,,,,,,,,,1,"[1,1,2,1,1,2,4,1]",0.23,1,7,3,black,,,
,,,,,,,,,,,,,,,21,0,21,0,1,train57_vistrain2,2024-01-21_22h46.36.746,VisTraining2,2021.2.3,Win32,59.17159763,,,,,,,,,2,"[1,1,2,1,1,2,4,1]",0.46,1,7,3,black,,,
,,,,,,,,,,,,,,,22,0,22,0,1,train57_vistrain2,2024-01-21_22h46.36.746,VisTraining2,2021.2.3,Win32,59.17159763,,,,,,,,,4,"[1,1,2,1,1,2,4,1]",0.92,1,7,3,black,,,
,,,,,,,,,,,,,,,23,0,23,0,1,train57_vistrain2,2024-01-21_22h46.36.746,VisTraining2,2021.2.3,Win32,59.17159763,,,,,,,,,1,"[1,1,2,1,1,2,4,1]",0.23,1,7,3,black,,,
,,,,,,,,,,,,,,,,,,,,train57_vistrain2,2024-01-21_22h46.36.746,VisTraining2,2021.2.3,Win32,59.17159763,,,2,7,0,7,0,1,,,,,,,,9.6846,,
,,,,,,,,,,,,,,,0,0,0,0,1,train57_vistrain2,2024-01-21_22h46.36.746,VisTraining2,2021.2.3,Win32,59.17159763,,,,,,,,,1,"[1,1,2,3,1,2,2,1]",0.23,1,7,2,black,,,
,,,,,,,,,,,,,,,1,0,1,0,1,train57_vistrain2,2024-01-21_22h46.36.746,VisTraining2,2021.2.3,Win32,59.17159763,,,,,,,,,1,"[1,1,2,3,1,2,2,1]",0.23,1,7,2,black,,,
,,,,,,,,,,,,,,,2,0,2,0,1,train57_vistrain2,2024-01-21_22h46.36.746,VisTraining2,2021.2.3,Win32,59.17159763,,,,,,,,,2,"[1,1,2,3,1,2,2,1]",0.46,1,7,2,black,,,
,,,,,,,,,,,,,,,3,0,3,0,1,train57_vistrain2,2024-01-21_22h46.36.746,VisTraining2,2021.2.3,Win32,59.17159763,,,,,,,,,3,"[1,1,2,3,1,2,2,1]",0.69,1,7,2,black,,,
,,,,,,,,,,,,,,,4,0,4,0,1,train57_vistrain2,2024-01-21_22h46.36.746,VisTraining2,2021.2.3,Win32,59.17159763,,,,,,,,,1,"[1,1,2,3,1,2,2,1]",0.23,1,7,2,black,,,
,,,,,,,,,,,,,,,5,0,5,0,1,train57_vistrain2,2024-01-21_22h46.36.746,VisTraining2,2021.2.3,Win32,59.17159763,,,,,,,,,2,"[1,1,2,3,1,2,2,1]",0.46,1,7,2,black,,,
,,,,,,,,,,,,,,,6,0,6,0,1,train57_vistrain2,2024-01-21_22h46.36.746,VisTraining2,2021.2.3,Win32,59.17159763,,,,,,,,,2,"[1,1,2,3,1,2,2,1]",0.46,1,7,2,black,,,
,,,,,,,,,,,,,,,7,0,7,0,1,train57_vistrain2,2024-01-21_22h46.36.746,VisTraining2,2021.2.3,Win32,59.17159763,,,,,,,,,1,"[1,1,2,3,1,2,2,1]",0.23,1,7,2,black,,,
,,,,,,,,,,,,,,,8,0,8,0,1,train57_vistrain2,2024-01-21_22h46.36.746,VisTraining2,2021.2.3,Win32,59.17159763,,,,,,,,,1,"[1,1,2,1,3,2,2,1]",0.23,1,7,2,black,,,
,,,,,,,,,,,,,,,9,0,9,0,1,train57_vistrain2,2024-01-21_22h46.36.746,VisTraining2,2021.2.3,Win32,59.17159763,,,,,,,,,1,"[1,1,2,1,3,2,2,1]",0.23,1,7,2,black,,,
,,,,,,,,,,,,,,,10,0,10,0,1,train57_vistrain2,2024-01-21_22h46.36.746,VisTraining2,2021.2.3,Win32,59.17159763,,,,,,,,,2,"[1,1,2,1,3,2,2,1]",0.46,1,7,2,black,,,
,,,,,,,,,,,,,,,11,0,11,0,1,train57_vistrain2,2024-01-21_22h46.36.746,VisTraining2,2021.2.3,Win32,59.17159763,,,,,,,,,1,"[1,1,2,1,3,2,2,1]",0.23,1,7,2,black,,,
,,,,,,,,,,,,,,,12,0,12,0,1,train57_vistrain2,2024-01-21_22h46.36.746,VisTraining2,2021.2.3,Win32,59.17159763,,,,,,,,,3,"[1,1,2,1,3,2,2,1]",0.69,1,7,2,black,,,
,,,,,,,,,,,,,,,13,0,13,0,1,train57_vistrain2,2024-01-21_22h46.36.746,VisTraining2,2021.2.3,Win32,59.17159763,,,,,,,,,2,"[1,1,2,1,3,2,2,1]",0.46,1,7,2,black,,,
,,,,,,,,,,,,,,,14,0,14,0,1,train57_vistrain2,2024-01-21_22h46.36.746,VisTraining2,2021.2.3,Win32,59.17159763,,,,,,,,,2,"[1,1,2,1,3,2,2,1]",0.46,1,7,2,black,,,
,,,,,,,,,,,,,,,15,0,15,0,1,train57_vistrain2,2024-01-21_22h46.36.746,VisTraining2,2021.2.3,Win32,59.17159763,,,,,,,,,1,"[1,1,2,1,3,2,2,1]",0.23,1,7,2,black,,,
,,,,,,,,,,,,,,,16,0,16,0,1,train57_vistrain2,2024-01-21_22h46.36.746,VisTraining2,2021.2.3,Win32,59.17159763,,,,,,,,,1,"[1,1,2,3,1,2,2,1]",0.23,1,7,2,black,,,
,,,,,,,,,,,,,,,17,0,17,0,1,train57_vistrain2,2024-01-21_22h46.36.746,VisTraining2,2021.2.3,Win32,59.17159763,,,,,,,,,1,"[1,1,2,3,1,2,2,1]",0.23,1,7,2,black,,,
,,,,,,,,,,,,,,,18,0,18,0,1,train57_vistrain2,2024-01-21_22h46.36.746,VisTraining2,2021.2.3,Win32,59.17159763,,,,,,,,,2,"[1,1,2,3,1,2,2,1]",0.46,1,7,2,black,,,
,,,,,,,,,,,,,,,19,0,19,0,1,train57_vistrain2,2024-01-21_22h46.36.746,VisTraining2,2021.2.3,Win32,59.17159763,,,,,,,,,3,"[1,1,2,3,1,2,2,1]",0.69,1,7,2,black,,,
,,,,,,,,,,,,,,,20,0,20,0,1,train57_vistrain2,2024-01-21_22h46.36.746,VisTraining2,2021.2.3,Win32,59.17159763,,,,,,,,,1,"[1,1,2,3,1,2,2,1]",0.23,1,7,2,black,,,
,,,,,,,,,,,,,,,21,0,21,0,1,train57_vistrain2,2024-01-21_22h46.36.746,VisTraining2,2021.2.3,Win32,59.17159763,,,,,,,,,2,"[1,1,2,3,1,2,2,1]",0.46,1,7,2,black,,,
,,,,,,,,,,,,,,,22,0,22,0,1,train57_vistrain2,2024-01-21_22h46.36.746,VisTraining2,2021.2.3,Win32,59.17159763,,,,,,,,,2,"[1,1,2,3,1,2,2,1]",0.46,1,7,2,black,,,
,,,,,,,,,,,,,,,23,0,23,0,1,train57_vistrain2,2024-01-21_22h46.36.746,VisTraining2,2021.2.3,Win32,59.17159763,,,,,,,,,1,"[1,1,2,3,1,2,2,1]",0.23,1,7,2,black,,,
,,,,,,,,,,,,,,,,,,,,train57_vistrain2,2024-01-21_22h46.36.746,VisTraining2,2021.2.3,Win32,59.17159763,,,3,8,0,8,0,1,,,,,,,,7.5169,,
,,,,,,,,,,,,,,,0,0,0,0,1,train57_vistrain2,2024-01-21_22h46.36.746,VisTraining2,2021.2.3,Win32,59.17159763,,,,,,,,,2,"[2,1,1,2,2,3,1,1]",0.46,1,7,3,black,,,
,,,,,,,,,,,,,,,1,0,1,0,1,train57_vistrain2,2024-01-21_22h46.36.746,VisTraining2,2021.2.3,Win32,59.17159763,,,,,,,,,1,"[2,1,1,2,2,3,1,1]",0.23,1,7,3,black,,,
,,,,,,,,,,,,,,,2,0,2,0,1,train57_vistrain2,2024-01-21_22h46.36.746,VisTraining2,2021.2.3,Win32,59.17159763,,,,,,,,,1,"[2,1,1,2,2,3,1,1]",0.23,1,7,3,black,,,
,,,,,,,,,,,,,,,3,0,3,0,1,train57_vistrain2,2024-01-21_22h46.36.746,VisTraining2,2021.2.3,Win32,59.17159763,,,,,,,,,2,"[2,1,1,2,2,3,1,1]",0.46,1,7,3,black,,,
,,,,,,,,,,,,,,,4,0,4,0,1,train57_vistrain2,2024-01-21_22h46.36.746,VisTraining2,2021.2.3,Win32,59.17159763,,,,,,,,,2,"[2,1,1,2,2,3,1,1]",0.46,1,7,3,black,,,
,,,,,,,,,,,,,,,5,0,5,0,1,train57_vistrain2,2024-01-21_22h46.36.746,VisTraining2,2021.2.3,Win32,59.17159763,,,,,,,,,3,"[2,1,1,2,2,3,1,1]",0.69,1,7,3,black,,,
,,,,,,,,,,,,,,,6,0,6,0,1,train57_vistrain2,2024-01-21_22h46.36.746,VisTraining2,2021.2.3,Win32,59.17159763,,,,,,,,,1,"[2,1,1,2,2,3,1,1]",0.23,1,7,3,black,,,
,,,,,,,,,,,,,,,7,0,7,0,1,train57_vistrain2,2024-01-21_22h46.36.746,VisTraining2,2021.2.3,Win32,59.17159763,,,,,,,,,1,"[2,1,1,2,2,3,1,1]",0.23,1,7,3,black,,,
,,,,,,,,,,,,,,,8,0,8,0,1,train57_vistrain2,2024-01-21_22h46.36.746,VisTraining2,2021.2.3,Win32,59.17159763,,,,,,,,,2,"[2,1,1,2,2,3,1,1]",0.46,1,7,3,black,,,
,,,,,,,,,,,,,,,9,0,9,0,1,train57_vistrain2,2024-01-21_22h46.36.746,VisTraining2,2021.2.3,Win32,59.17159763,,,,,,,,,1,"[2,1,1,2,2,3,1,1]",0.23,1,7,3,black,,,
,,,,,,,,,,,,,,,10,0,10,0,1,train57_vistrain2,2024-01-21_22h46.36.746,VisTraining2,2021.2.3,Win32,59.17159763,,,,,,,,,1,"[2,1,1,2,2,3,1,1]",0.23,1,7,3,black,,,
,,,,,,,,,,,,,,,11,0,11,0,1,train57_vistrain2,2024-01-21_22h46.36.746,VisTraining2,2021.2.3,Win32,59.17159763,,,,,,,,,2,"[2,1,1,2,2,3,1,1]",0.46,1,7,3,black,,,
,,,,,,,,,,,,,,,12,0,12,0,1,train57_vistrain2,2024-01-21_22h46.36.746,VisTraining2,2021.2.3,Win32,59.17159763,,,,,,,,,2,"[2,1,1,2,2,3,1,1]",0.46,1,7,3,black,,,
,,,,,,,,,,,,,,,13,0,13,0,1,train57_vistrain2,2024-01-21_22h46.36.746,VisTraining2,2021.2.3,Win32,59.17159763,,,,,,,,,3,"[2,1,1,2,2,3,1,1]",0.69,1,7,3,black,,,
,,,,,,,,,,,,,,,14,0,14,0,1,train57_vistrain2,2024-01-21_22h46.36.746,VisTraining2,2021.2.3,Win32,59.17159763,,,,,,,,,1,"[2,1,1,2,2,3,1,1]",0.23,1,7,3,black,,,
,,,,,,,,,,,,,,,15,0,15,0,1,train57_vistrain2,2024-01-21_22h46.36.746,VisTraining2,2021.2.3,Win32,59.17159763,,,,,,,,,1,"[2,1,1,2,2,3,1,1]",0.23,1,7,3,black,,,
,,,,,,,,,,,,,,,16,0,16,0,1,train57_vistrain2,2024-01-21_22h46.36.746,VisTraining2,2021.2.3,Win32,59.17159763,,,,,,,,,2,"[2,1,1,2,2,1,3,1]",0.46,1,7,3,black,,,
,,,,,,,,,,,,,,,17,0,17,0,1,train57_vistrain2,2024-01-21_22h46.36.746,VisTraining2,2021.2.3,Win32,59.17159763,,,,,,,,,1,"[2,1,1,2,2,1,3,1]",0.23,1,7,3,black,,,
,,,,,,,,,,,,,,,18,0,18,0,1,train57_vistrain2,2024-01-21_22h46.36.746,VisTraining2,2021.2.3,Win32,59.17159763,,,,,,,,,1,"[2,1,1,2,2,1,3,1]",0.23,1,7,3,black,,,
,,,,,,,,,,,,,,,19,0,19,0,1,train57_vistrain2,2024-01-21_22h46.36.746,VisTraining2,2021.2.3,Win32,59.17159763,,,,,,,,,2,"[2,1,1,2,2,1,3,1]",0.46,1,7,3,black,,,
,,,,,,,,,,,,,,,20,0,20,0,1,train57_vistrain2,2024-01-21_22h46.36.746,VisTraining2,2021.2.3,Win32,59.17159763,,,,,,,,,2,"[2,1,1,2,2,1,3,1]",0.46,1,7,3,black,,,
,,,,,,,,,,,,,,,21,0,21,0,1,train57_vistrain2,2024-01-21_22h46.36.746,VisTraining2,2021.2.3,Win32,59.17159763,,,,,,,,,1,"[2,1,1,2,2,1,3,1]",0.23,1,7,3,black,,,
,,,,,,,,,,,,,,,22,0,22,0,1,train57_vistrain2,2024-01-21_22h46.36.746,VisTraining2,2021.2.3,Win32,59.17159763,,,,,,,,,3,"[2,1,1,2,2,1,3,1]",0.69,1,7,3,black,,,
,,,,,,,,,,,,,,,23,0,23,0,1,train57_vistrain2,2024-01-21_22h46.36.746,VisTraining2,2021.2.3,Win32,59.17159763,,,,,,,,,1,"[2,1,1,2,2,1,3,1]",0.23,1,7,3,black,,,
,,,,,,,,,,,,,,,,,,,,train57_vistrain2,2024-01-21_22h46.36.746,VisTraining2,2021.2.3,Win32,59.17159763,,,1,9,0,9,0,1,,,,,,,,190.2924,,
,,,,,,,,,,,,,,,0,0,0,0,1,train57_vistrain2,2024-01-21_22h46.36.746,VisTraining2,2021.2.3,Win32,59.17159763,,,,,,,,,4,"[4,2,2,1,1,2,1]",0.92,1,6,2,black,,,
,,,,,,,,,,,,,,,1,0,1,0,1,train57_vistrain2,2024-01-21_22h46.36.746,VisTraining2,2021.2.3,Win32,59.17159763,,,,,,,,,2,"[4,2,2,1,1,2,1]",0.46,1,6,2,black,,,
,,,,,,,,,,,,,,,2,0,2,0,1,train57_vistrain2,2024-01-21_22h46.36.746,VisTraining2,2021.2.3,Win32,59.17159763,,,,,,,,,2,"[4,2,2,1,1,2,1]",0.46,1,6,2,black,,,
,,,,,,,,,,,,,,,3,0,3,0,1,train57_vistrain2,2024-01-21_22h46.36.746,VisTraining2,2021.2.3,Win32,59.17159763,,,,,,,,,1,"[4,2,2,1,1,2,1]",0.23,1,6,2,black,,,
,,,,,,,,,,,,,,,4,0,4,0,1,train57_vistrain2,2024-01-21_22h46.36.746,VisTraining2,2021.2.3,Win32,59.17159763,,,,,,,,,1,"[4,2,2,1,1,2,1]",0.23,1,6,2,black,,,
,,,,,,,,,,,,,,,5,0,5,0,1,train57_vistrain2,2024-01-21_22h46.36.746,VisTraining2,2021.2.3,Win32,59.17159763,,,,,,,,,2,"[4,2,2,1,1,2,1]",0.46,1,6,2,black,,,
,,,,,,,,,,,,,,,6,0,6,0,1,train57_vistrain2,2024-01-21_22h46.36.746,VisTraining2,2021.2.3,Win32,59.17159763,,,,,,,,,1,"[4,2,2,1,1,2,1]",0.23,1,6,2,black,,,
,,,,,,,,,,,,,,,7,0,7,0,1,train57_vistrain2,2024-01-21_22h46.36.746,VisTraining2,2021.2.3,Win32,59.17159763,,,,,,,,,4,"[4,2,2,2,1,1,1]",0.92,1,6,2,black,,,
,,,,,,,,,,,,,,,8,0,8,0,1,train57_vistrain2,2024-01-21_22h46.36.746,VisTraining2,2021.2.3,Win32,59.17159763,,,,,,,,,2,"[4,2,2,2,1,1,1]",0.46,1,6,2,black,,,
,,,,,,,,,,,,,,,9,0,9,0,1,train57_vistrain2,2024-01-21_22h46.36.746,VisTraining2,2021.2.3,Win32,59.17159763,,,,,,,,,2,"[4,2,2,2,1,1,1]",0.46,1,6,2,black,,,
,,,,,,,,,,,,,,,10,0,10,0,1,train57_vistrain2,2024-01-21_22h46.36.746,VisTraining2,2021.2.3,Win32,59.17159763,,,,,,,,,2,"[4,2,2,2,1,1,1]",0.46,1,6,2,black,,,
,,,,,,,,,,,,,,,11,0,11,0,1,train57_vistrain2,2024-01-21_22h46.36.746,VisTraining2,2021.2.3,Win32,59.17159763,,,,,,,,,1,"[4,2,2,2,1,1,1]",0.23,1,6,2,black,,,
,,,,,,,,,,,,,,,12,0,12,0,1,train57_vistrain2,2024-01-21_22h46.36.746,VisTraining2,2021.2.3,Win32,59.17159763,,,,,,,,,1,"[4,2,2,2,1,1,1]",0.23,1,6,2,black,,,
,,,,,,,,,,,,,,,13,0,13,0,1,train57_vistrain2,2024-01-21_22h46.36.746,VisTraining2,2021.2.3,Win32,59.17159763,,,,,,,,,1,"[4,2,2,2,1,1,1]",0.23,1,6,2,black,,,
,,,,,,,,,,,,,,,14,0,14,0,1,train57_vistrain2,2024-01-21_22h46.36.746,VisTraining2,2021.2.3,Win32,59.17159763,,,,,,,,,4,"[4,2,2,1,1,2,1]",0.92,1,6,2,black,,,
,,,,,,,,,,,,,,,15,0,15,0,1,train57_vistrain2,2024-01-21_22h46.36.746,VisTraining2,2021.2.3,Win32,59.17159763,,,,,,,,,2,"[4,2,2,1,1,2,1]",0.46,1,6,2,black,,,
,,,,,,,,,,,,,,,16,0,16,0,1,train57_vistrain2,2024-01-21_22h46.36.746,VisTraining2,2021.2.3,Win32,59.17159763,,,,,,,,,2,"[4,2,2,1,1,2,1]",0.46,1,6,2,black,,,
,,,,,,,,,,,,,,,17,0,17,0,1,train57_vistrain2,2024-01-21_22h46.36.746,VisTraining2,2021.2.3,Win32,59.17159763,,,,,,,,,1,"[4,2,2,1,1,2,1]",0.23,1,6,2,black,,,
,,,,,,,,,,,,,,,18,0,18,0,1,train57_vistrain2,2024-01-21_22h46.36.746,VisTraining2,2021.2.3,Win32,59.17159763,,,,,,,,,1,"[4,2,2,1,1,2,1]",0.23,1,6,2,black,,,
,,,,,,,,,,,,,,,19,0,19,0,1,train57_vistrain2,2024-01-21_22h46.36.746,VisTraining2,2021.2.3,Win32,59.17159763,,,,,,,,,2,"[4,2,2,1,1,2,1]",0.46,1,6,2,black,,,
,,,,,,,,,,,,,,,20,0,20,0,1,train57_vistrain2,2024-01-21_22h46.36.746,VisTraining2,2021.2.3,Win32,59.17159763,,,,,,,,,1,"[4,2,2,1,1,2,1]",0.23,1,6,2,black,,,
,,,,,,,,,,,,,,,,,,,,train57_vistrain2,2024-01-21_22h46.36.746,VisTraining2,2021.2.3,Win32,59.17159763,,,1,10,0,10,0,1,,,,,,,,1.451,,
,,,,,,,,,,,,,,,0,0,0,0,1,train57_vistrain2,2024-01-21_22h46.36.746,VisTraining2,2021.2.3,Win32,59.17159763,,,,,,,,,2,"[2,2,4,1,3,1]",0.5,2,5,3,green,,,
,,,,,,,,,,,,,,,1,0,1,0,1,train57_vistrain2,2024-01-21_22h46.36.746,VisTraining2,2021.2.3,Win32,59.17159763,,,,,,,,,2,"[2,2,4,1,3,1]",0.5,2,5,3,green,,,
,,,,,,,,,,,,,,,2,0,2,0,1,train57_vistrain2,2024-01-21_22h46.36.746,VisTraining2,2021.2.3,Win32,59.17159763,,,,,,,,,4,"[2,2,4,1,3,1]",1,2,5,3,green,,,
,,,,,,,,,,,,,,,3,0,3,0,1,train57_vistrain2,2024-01-21_22h46.36.746,VisTraining2,2021.2.3,Win32,59.17159763,,,,,,,,,1,"[2,2,4,1,3,1]",0.25,2,5,3,green,,,
,,,,,,,,,,,,,,,4,0,4,0,1,train57_vistrain2,2024-01-21_22h46.36.746,VisTraining2,2021.2.3,Win32,59.17159763,,,,,,,,,3,"[2,2,4,1,3,1]",0.75,2,5,3,green,,,
,,,,,,,,,,,,,,,5,0,5,0,1,train57_vistrain2,2024-01-21_22h46.36.746,VisTraining2,2021.2.3,Win32,59.17159763,,,,,,,,,1,"[2,2,4,1,3,1]",0.25,2,5,3,green,,,
,,,,,,,,,,,,,,,6,0,6,0,1,train57_vistrain2,2024-01-21_22h46.36.746,VisTraining2,2021.2.3,Win32,59.17159763,,,,,,,,,2,"[2,2,4,1,3,1]",0.5,2,5,3,green,,,
,,,,,,,,,,,,,,,7,0,7,0,1,train57_vistrain2,2024-01-21_22h46.36.746,VisTraining2,2021.2.3,Win32,59.17159763,,,,,,,,,2,"[2,2,4,1,3,1]",0.5,2,5,3,green,,,
,,,,,,,,,,,,,,,8,0,8,0,1,train57_vistrain2,2024-01-21_22h46.36.746,VisTraining2,2021.2.3,Win32,59.17159763,,,,,,,,,4,"[2,2,4,1,3,1]",1,2,5,3,green,,,
,,,,,,,,,,,,,,,9,0,9,0,1,train57_vistrain2,2024-01-21_22h46.36.746,VisTraining2,2021.2.3,Win32,59.17159763,,,,,,,,,1,"[2,2,4,1,3,1]",0.25,2,5,3,green,,,
,,,,,,,,,,,,,,,10,0,10,0,1,train57_vistrain2,2024-01-21_22h46.36.746,VisTraining2,2021.2.3,Win32,59.17159763,,,,,,,,,3,"[2,2,4,1,3,1]",0.75,2,5,3,green,,,
,,,,,,,,,,,,,,,11,0,11,0,1,train57_vistrain2,2024-01-21_22h46.36.746,VisTraining2,2021.2.3,Win32,59.17159763,,,,,,,,,1,"[2,2,4,1,3,1]",0.25,2,5,3,green,,,
,,,,,,,,,,,,,,,12,0,12,0,1,train57_vistrain2,2024-01-21_22h46.36.746,VisTraining2,2021.2.3,Win32,59.17159763,,,,,,,,,2,"[2,2,4,3,1,1]",0.5,2,5,3,green,,,
,,,,,,,,,,,,,,,13,0,13,0,1,train57_vistrain2,2024-01-21_22h46.36.746,VisTraining2,2021.2.3,Win32,59.17159763,,,,,,,,,2,"[2,2,4,3,1,1]",0.5,2,5,3,green,,,
,,,,,,,,,,,,,,,14,0,14,0,1,train57_vistrain2,2024-01-21_22h46.36.746,VisTraining2,2021.2.3,Win32,59.17159763,,,,,,,,,4,"[2,2,4,3,1,1]",1,2,5,3,green,,,
,,,,,,,,,,,,,,,15,0,15,0,1,train57_vistrain2,2024-01-21_22h46.36.746,VisTraining2,2021.2.3,Win32,59.17159763,,,,,,,,,3,"[2,2,4,3,1,1]",0.75,2,5,3,green,,,
,,,,,,,,,,,,,,,16,0,16,0,1,train57_vistrain2,2024-01-21_22h46.36.746,VisTraining2,2021.2.3,Win32,59.17159763,,,,,,,,,1,"[2,2,4,3,1,1]",0.25,2,5,3,green,,,
,,,,,,,,,,,,,,,17,0,17,0,1,train57_vistrain2,2024-01-21_22h46.36.746,VisTraining2,2021.2.3,Win32,59.17159763,,,,,,,,,1,"[2,2,4,3,1,1]",0.25,2,5,3,green,,,
,,,,,,,,,,,,,,,,,,,,train57_vistrain2,2024-01-21_22h46.36.746,VisTraining2,2021.2.3,Win32,59.17159763,,,g,11,0,11,0,1,,,,,,,,0.9841,,
,,,,,,,,,,,,,,,0,0,0,0,1,train57_vistrain2,2024-01-21_22h46.36.746,VisTraining2,2021.2.3,Win32,59.17159763,,,,,,,,,3,"[3,1,2,2,1,3,1]",0.81,3,6,3,black,,,
,,,,,,,,,,,,,,,1,0,1,0,1,train57_vistrain2,2024-01-21_22h46.36.746,VisTraining2,2021.2.3,Win32,59.17159763,,,,,,,,,1,"[3,1,2,2,1,3,1]",0.27,3,6,3,black,,,
,,,,,,,,,,,,,,,2,0,2,0,1,train57_vistrain2,2024-01-21_22h46.36.746,VisTraining2,2021.2.3,Win32,59.17159763,,,,,,,,,2,"[3,1,2,2,1,3,1]",0.54,3,6,3,black,,,
,,,,,,,,,,,,,,,3,0,3,0,1,train57_vistrain2,2024-01-21_22h46.36.746,VisTraining2,2021.2.3,Win32,59.17159763,,,,,,,,,2,"[3,1,2,2,1,3,1]",0.54,3,6,3,black,,,
,,,,,,,,,,,,,,,4,0,4,0,1,train57_vistrain2,2024-01-21_22h46.36.746,VisTraining2,2021.2.3,Win32,59.17159763,,,,,,,,,1,"[3,1,2,2,1,3,1]",0.27,3,6,3,black,,,
,,,,,,,,,,,,,,,5,0,5,0,1,train57_vistrain2,2024-01-21_22h46.36.746,VisTraining2,2021.2.3,Win32,59.17159763,,,,,,,,,3,"[3,1,2,2,1,3,1]",0.81,3,6,3,black,,,
,,,,,,,,,,,,,,,6,0,6,0,1,train57_vistrain2,2024-01-21_22h46.36.746,VisTraining2,2021.2.3,Win32,59.17159763,,,,,,,,,1,"[3,1,2,2,1,3,1]",0.27,3,6,3,black,,,
,,,,,,,,,,,,,,,7,0,7,0,1,train57_vistrain2,2024-01-21_22h46.36.746,VisTraining2,2021.2.3,Win32,59.17159763,,,,,,,,,3,"[3,1,2,2,1,3,1]",0.81,3,6,3,black,,,
,,,,,,,,,,,,,,,8,0,8,0,1,train57_vistrain2,2024-01-21_22h46.36.746,VisTraining2,2021.2.3,Win32,59.17159763,,,,,,,,,1,"[3,1,2,2,1,3,1]",0.27,3,6,3,black,,,
,,,,,,,,,,,,,,,9,0,9,0,1,train57_vistrain2,2024-01-21_22h46.36.746,VisTraining2,2021.2.3,Win32,59.17159763,,,,,,,,,2,"[3,1,2,2,1,3,1]",0.54,3,6,3,black,,,
,,,,,,,,,,,,,,,10,0,10,0,1,train57_vistrain2,2024-01-21_22h46.36.746,VisTraining2,2021.2.3,Win32,59.17159763,,,,,,,,,2,"[3,1,2,2,1,3,1]",0.54,3,6,3,black,,,
,,,,,,,,,,,,,,,11,0,11,0,1,train57_vistrain2,2024-01-21_22h46.36.746,VisTraining2,2021.2.3,Win32,59.17159763,,,,,,,,,1,"[3,1,2,2,1,3,1]",0.27,3,6,3,black,,,
,,,,,,,,,,,,,,,12,0,12,0,1,train57_vistrain2,2024-01-21_22h46.36.746,VisTraining2,2021.2.3,Win32,59.17159763,,,,,,,,,3,"[3,1,2,2,1,3,1]",0.81,3,6,3,black,,,
,,,,,,,,,,,,,,,13,0,13,0,1,train57_vistrain2,2024-01-21_22h46.36.746,VisTraining2,2021.2.3,Win32,59.17159763,,,,,,,,,1,"[3,1,2,2,1,3,1]",0.27,3,6,3,black,,,
,,,,,,,,,,,,,,,14,0,14,0,1,train57_vistrain2,2024-01-21_22h46.36.746,VisTraining2,2021.2.3,Win32,59.17159763,,,,,,,,,3,"[3,1,2,2,3,1,1]",0.81,3,6,3,black,,,
,,,,,,,,,,,,,,,15,0,15,0,1,train57_vistrain2,2024-01-21_22h46.36.746,VisTraining2,2021.2.3,Win32,59.17159763,,,,,,,,,1,"[3,1,2,2,3,1,1]",0.27,3,6,3,black,,,
,,,,,,,,,,,,,,,16,0,16,0,1,train57_vistrain2,2024-01-21_22h46.36.746,VisTraining2,2021.2.3,Win32,59.17159763,,,,,,,,,2,"[3,1,2,2,3,1,1]",0.54,3,6,3,black,,,
,,,,,,,,,,,,,,,17,0,17,0,1,train57_vistrain2,2024-01-21_22h46.36.746,VisTraining2,2021.2.3,Win32,59.17159763,,,,,,,,,2,"[3,1,2,2,3,1,1]",0.54,3,6,3,black,,,
,,,,,,,,,,,,,,,18,0,18,0,1,train57_vistrain2,2024-01-21_22h46.36.746,VisTraining2,2021.2.3,Win32,59.17159763,,,,,,,,,3,"[3,1,2,2,3,1,1]",0.81,3,6,3,black,,,
,,,,,,,,,,,,,,,19,0,19,0,1,train57_vistrain2,2024-01-21_22h46.36.746,VisTraining2,2021.2.3,Win32,59.17159763,,,,,,,,,1,"[3,1,2,2,3,1,1]",0.27,3,6,3,black,,,
,,,,,,,,,,,,,,,20,0,20,0,1,train57_vistrain2,2024-01-21_22h46.36.746,VisTraining2,2021.2.3,Win32,59.17159763,,,,,,,,,1,"[3,1,2,2,3,1,1]",0.27,3,6,3,black,,,
,,,,,,,,,,,,,,,,,,,,train57_vistrain2,2024-01-21_22h46.36.746,VisTraining2,2021.2.3,Win32,59.17159763,,,1,12,0,12,0,1,,,,,,,,0.9005,,
,,,,,,,,,,,,,,,0,0,0,0,1,train57_vistrain2,2024-01-21_22h46.36.746,VisTraining2,2021.2.3,Win32,59.17159763,,,,,,,,,2,"[2,1,1,4,3,1,1]",0.54,3,6,1,black,,,
,,,,,,,,,,,,,,,1,0,1,0,1,train57_vistrain2,2024-01-21_22h46.36.746,VisTraining2,2021.2.3,Win32,59.17159763,,,,,,,,,1,"[2,1,1,4,3,1,1]",0.27,3,6,1,black,,,
,,,,,,,,,,,,,,,2,0,2,0,1,train57_vistrain2,2024-01-21_22h46.36.746,VisTraining2,2021.2.3,Win32,59.17159763,,,,,,,,,1,"[2,1,1,4,3,1,1]",0.27,3,6,1,black,,,
,,,,,,,,,,,,,,,3,0,3,0,1,train57_vistrain2,2024-01-21_22h46.36.746,VisTraining2,2021.2.3,Win32,59.17159763,,,,,,,,,4,"[2,1,1,4,3,1,1]",1.08,3,6,1,black,,,
,,,,,,,,,,,,,,,4,0,4,0,1,train57_vistrain2,2024-01-21_22h46.36.746,VisTraining2,2021.2.3,Win32,59.17159763,,,,,,,,,3,"[2,1,1,4,3,1,1]",0.81,3,6,1,black,,,
,,,,,,,,,,,,,,,5,0,5,0,1,train57_vistrain2,2024-01-21_22h46.36.746,VisTraining2,2021.2.3,Win32,59.17159763,,,,,,,,,1,"[2,1,1,4,3,1,1]",0.27,3,6,1,black,,,
,,,,,,,,,,,,,,,6,0,6,0,1,train57_vistrain2,2024-01-21_22h46.36.746,VisTraining2,2021.2.3,Win32,59.17159763,,,,,,,,,1,"[2,1,1,4,3,1,1]",0.27,3,6,1,black,,,
,,,,,,,,,,,,,,,7,0,7,0,1,train57_vistrain2,2024-01-21_22h46.36.746,VisTraining2,2021.2.3,Win32,59.17159763,,,,,,,,,2,"[2,1,1,4,1,3,1]",0.54,3,6,1,black,,,
,,,,,,,,,,,,,,,8,0,8,0,1,train57_vistrain2,2024-01-21_22h46.36.746,VisTraining2,2021.2.3,Win32,59.17159763,,,,,,,,,1,"[2,1,1,4,1,3,1]",0.27,3,6,1,black,,,
,,,,,,,,,,,,,,,9,0,9,0,1,train57_vistrain2,2024-01-21_22h46.36.746,VisTraining2,2021.2.3,Win32,59.17159763,,,,,,,,,1,"[2,1,1,4,1,3,1]",0.27,3,6,1,black,,,
,,,,,,,,,,,,,,,10,0,10,0,1,train57_vistrain2,2024-01-21_22h46.36.746,VisTraining2,2021.2.3,Win32,59.17159763,,,,,,,,,4,"[2,1,1,4,1,3,1]",1.08,3,6,1,black,,,
,,,,,,,,,,,,,,,11,0,11,0,1,train57_vistrain2,2024-01-21_22h46.36.746,VisTraining2,2021.2.3,Win32,59.17159763,,,,,,,,,1,"[2,1,1,4,1,3,1]",0.27,3,6,1,black,,,
,,,,,,,,,,,,,,,12,0,12,0,1,train57_vistrain2,2024-01-21_22h46.36.746,VisTraining2,2021.2.3,Win32,59.17159763,,,,,,,,,3,"[2,1,1,4,1,3,1]",0.81,3,6,1,black,,,
,,,,,,,,,,,,,,,13,0,13,0,1,train57_vistrain2,2024-01-21_22h46.36.746,VisTraining2,2021.2.3,Win32,59.17159763,,,,,,,,,1,"[2,1,1,4,1,3,1]",0.27,3,6,1,black,,,
,,,,,,,,,,,,,,,14,0,14,0,1,train57_vistrain2,2024-01-21_22h46.36.746,VisTraining2,2021.2.3,Win32,59.17159763,,,,,,,,,2,"[2,1,1,4,1,3,1]",0.54,3,6,1,black,,,
,,,,,,,,,,,,,,,15,0,15,0,1,train57_vistrain2,2024-01-21_22h46.36.746,VisTraining2,2021.2.3,Win32,59.17159763,,,,,,,,,1,"[2,1,1,4,1,3,1]",0.27,3,6,1,black,,,
,,,,,,,,,,,,,,,16,0,16,0,1,train57_vistrain2,2024-01-21_22h46.36.746,VisTraining2,2021.2.3,Win32,59.17159763,,,,,,,,,1,"[2,1,1,4,1,3,1]",0.27,3,6,1,black,,,
,,,,,,,,,,,,,,,17,0,17,0,1,train57_vistrain2,2024-01-21_22h46.36.746,VisTraining2,2021.2.3,Win32,59.17159763,,,,,,,,,4,"[2,1,1,4,1,3,1]",1.08,3,6,1,black,,,
,,,,,,,,,,,,,,,18,0,18,0,1,train57_vistrain2,2024-01-21_22h46.36.746,VisTraining2,2021.2.3,Win32,59.17159763,,,,,,,,,1,"[2,1,1,4,1,3,1]",0.27,3,6,1,black,,,
,,,,,,,,,,,,,,,19,0,19,0,1,train57_vistrain2,2024-01-21_22h46.36.746,VisTraining2,2021.2.3,Win32,59.17159763,,,,,,,,,3,"[2,1,1,4,1,3,1]",0.81,3,6,1,black,,,
,,,,,,,,,,,,,,,20,0,20,0,1,train57_vistrain2,2024-01-21_22h46.36.746,VisTraining2,2021.2.3,Win32,59.17159763,,,,,,,,,1,"[2,1,1,4,1,3,1]",0.27,3,6,1,black,,,
,,,,,,,,,,,,,,,,,,,,train57_vistrain2,2024-01-21_22h46.36.746,VisTraining2,2021.2.3,Win32,59.17159763,,,3,13,0,13,0,1,,,,,,,,2.5343,,
,,,,,,,,,,,,,,,0,0,0,0,1,train57_vistrain2,2024-01-21_22h46.36.746,VisTraining2,2021.2.3,Win32,59.17159763,,,,,,,,,1,"[1,1,2,2,1,1,4,1]",0.27,3,7,2,black,,,
,,,,,,,,,,,,,,,1,0,1,0,1,train57_vistrain2,2024-01-21_22h46.36.746,VisTraining2,2021.2.3,Win32,59.17159763,,,,,,,,,1,"[1,1,2,2,1,1,4,1]",0.27,3,7,2,black,,,
,,,,,,,,,,,,,,,2,0,2,0,1,train57_vistrain2,2024-01-21_22h46.36.746,VisTraining2,2021.2.3,Win32,59.17159763,,,,,,,,,2,"[1,1,2,2,1,1,4,1]",0.54,3,7,2,black,,,
,,,,,,,,,,,,,,,3,0,3,0,1,train57_vistrain2,2024-01-21_22h46.36.746,VisTraining2,2021.2.3,Win32,59.17159763,,,,,,,,,2,"[1,1,2,2,1,1,4,1]",0.54,3,7,2,black,,,
,,,,,,,,,,,,,,,4,0,4,0,1,train57_vistrain2,2024-01-21_22h46.36.746,VisTraining2,2021.2.3,Win32,59.17159763,,,,,,,,,1,"[1,1,2,2,1,1,4,1]",0.27,3,7,2,black,,,
,,,,,,,,,,,,,,,5,0,5,0,1,train57_vistrain2,2024-01-21_22h46.36.746,VisTraining2,2021.2.3,Win32,59.17159763,,,,,,,,,1,"[1,1,2,2,1,1,4,1]",0.27,3,7,2,black,,,
,,,,,,,,,,,,,,,6,0,6,0,1,train57_vistrain2,2024-01-21_22h46.36.746,VisTraining2,2021.2.3,Win32,59.17159763,,,,,,,,,4,"[1,1,2,2,1,1,4,1]",1.08,3,7,2,black,,,
,,,,,,,,,,,,,,,7,0,7,0,1,train57_vistrain2,2024-01-21_22h46.36.746,VisTraining2,2021.2.3,Win32,59.17159763,,,,,,,,,1,"[1,1,2,2,1,1,4,1]",0.27,3,7,2,black,,,
,,,,,,,,,,,,,,,8,0,8,0,1,train57_vistrain2,2024-01-21_22h46.36.746,VisTraining2,2021.2.3,Win32,59.17159763,,,,,,,,,1,"[1,1,2,1,1,2,4,1]",0.27,3,7,2,black,,,
,,,,,,,,,,,,,,,9,0,9,0,1,train57_vistrain2,2024-01-21_22h46.36.746,VisTraining2,2021.2.3,Win32,59.17159763,,,,,,,,,1,"[1,1,2,1,1,2,4,1]",0.27,3,7,2,black,,,
,,,,,,,,,,,,,,,10,0,10,0,1,train57_vistrain2,2024-01-21_22h46.36.746,VisTraining2,2021.2.3,Win32,59.17159763,,,,,,,,,2,"[1,1,2,1,1,2,4,1]",0.54,3,7,2,black,,,
,,,,,,,,,,,,,,,11,0,11,0,1,train57_vistrain2,2024-01-21_22h46.36.746,VisTraining2,2021.2.3,Win32,59.17159763,,,,,,,,,1,"[1,1,2,1,1,2,4,1]",0.27,3,7,2,black,,,
,,,,,,,,,,,,,,,12,0,12,0,1,train57_vistrain2,2024-01-21_22h46.36.746,VisTraining2,2021.2.3,Win32,59.17159763,,,,,,,,,1,"[1,1,2,1,1,2,4,1]",0.27,3,7,2,black,,,
,,,,,,,,,,,,,,,13,0,13,0,1,train57_vistrain2,2024-01-21_22h46.36.746,VisTraining2,2021.2.3,Win32,59.17159763,,,,,,,,,2,"[1,1,2,1,1,2,4,1]",0.54,3,7,2,black,,,
,,,,,,,,,,,,,,,14,0,14,0,1,train57_vistrain2,2024-01-21_22h46.36.746,VisTraining2,2021.2.3,Win32,59.17159763,,,,,,,,,4,"[1,1,2,1,1,2,4,1]",1.08,3,7,2,black,,,
,,,,,,,,,,,,,,,15,0,15,0,1,train57_vistrain2,2024-01-21_22h46.36.746,VisTraining2,2021.2.3,Win32,59.17159763,,,,,,,,,1,"[1,1,2,1,1,2,4,1]",0.27,3,7,2,black,,,
,,,,,,,,,,,,,,,16,0,16,0,1,train57_vistrain2,2024-01-21_22h46.36.746,VisTraining2,2021.2.3,Win32,59.17159763,,,,,,,,,1,"[1,1,2,2,1,1,4,1]",0.27,3,7,2,black,,,
,,,,,,,,,,,,,,,17,0,17,0,1,train57_vistrain2,2024-01-21_22h46.36.746,VisTraining2,2021.2.3,Win32,59.17159763,,,,,,,,,1,"[1,1,2,2,1,1,4,1]",0.27,3,7,2,black,,,
,,,,,,,,,,,,,,,18,0,18,0,1,train57_vistrain2,2024-01-21_22h46.36.746,VisTraining2,2021.2.3,Win32,59.17159763,,,,,,,,,2,"[1,1,2,2,1,1,4,1]",0.54,3,7,2,black,,,
,,,,,,,,,,,,,,,19,0,19,0,1,train57_vistrain2,2024-01-21_22h46.36.746,VisTraining2,2021.2.3,Win32,59.17159763,,,,,,,,,2,"[1,1,2,2,1,1,4,1]",0.54,3,7,2,black,,,
,,,,,,,,,,,,,,,20,0,20,0,1,train57_vistrain2,2024-01-21_22h46.36.746,VisTraining2,2021.2.3,Win32,59.17159763,,,,,,,,,1,"[1,1,2,2,1,1,4,1]",0.27,3,7,2,black,,,
,,,,,,,,,,,,,,,21,0,21,0,1,train57_vistrain2,2024-01-21_22h46.36.746,VisTraining2,2021.2.3,Win32,59.17159763,,,,,,,,,1,"[1,1,2,2,1,1,4,1]",0.27,3,7,2,black,,,
,,,,,,,,,,,,,,,22,0,22,0,1,train57_vistrain2,2024-01-21_22h46.36.746,VisTraining2,2021.2.3,Win32,59.17159763,,,,,,,,,4,"[1,1,2,2,1,1,4,1]",1.08,3,7,2,black,,,
,,,,,,,,,,,,,,,23,0,23,0,1,train57_vistrain2,2024-01-21_22h46.36.746,VisTraining2,2021.2.3,Win32,59.17159763,,,,,,,,,1,"[1,1,2,2,1,1,4,1]",0.27,3,7,2,black,,,
,,,,,,,,,,,,,,,,,,,,train57_vistrain2,2024-01-21_22h46.36.746,VisTraining2,2021.2.3,Win32,59.17159763,,,1,14,0,14,0,1,,,,,,,,1.0038,,
,,,,,,,,,,,,,,,0,0,0,0,1,train57_vistrain2,2024-01-21_22h46.36.746,VisTraining2,2021.2.3,Win32,59.17159763,,,,,,,,,3,"[3,1,4,1,3,1]",0.81,3,5,2,black,,,
,,,,,,,,,,,,,,,1,0,1,0,1,train57_vistrain2,2024-01-21_22h46.36.746,VisTraining2,2021.2.3,Win32,59.17159763,,,,,,,,,1,"[3,1,4,1,3,1]",0.27,3,5,2,black,,,
,,,,,,,,,,,,,,,2,0,2,0,1,train57_vistrain2,2024-01-21_22h46.36.746,VisTraining2,2021.2.3,Win32,59.17159763,,,,,,,,,4,"[3,1,4,1,3,1]",1.08,3,5,2,black,,,
,,,,,,,,,,,,,,,3,0,3,0,1,train57_vistrain2,2024-01-21_22h46.36.746,VisTraining2,2021.2.3,Win32,59.17159763,,,,,,,,,1,"[3,1,4,1,3,1]",0.27,3,5,2,black,,,
,,,,,,,,,,,,,,,4,0,4,0,1,train57_vistrain2,2024-01-21_22h46.36.746,VisTraining2,2021.2.3,Win32,59.17159763,,,,,,,,,3,"[3,1,4,1,3,1]",0.81,3,5,2,black,,,
,,,,,,,,,,,,,,,5,0,5,0,1,train57_vistrain2,2024-01-21_22h46.36.746,VisTraining2,2021.2.3,Win32,59.17159763,,,,,,,,,1,"[3,1,4,1,3,1]",0.27,3,5,2,black,,,
,,,,,,,,,,,,,,,6,0,6,0,1,train57_vistrain2,2024-01-21_22h46.36.746,VisTraining2,2021.2.3,Win32,59.17159763,,,,,,,,,3,"[3,1,4,3,1,1]",0.81,3,5,2,black,,,
,,,,,,,,,,,,,,,7,0,7,0,1,train57_vistrain2,2024-01-21_22h46.36.746,VisTraining2,2021.2.3,Win32,59.17159763,,,,,,,,,1,"[3,1,4,3,1,1]",0.27,3,5,2,black,,,
,,,,,,,,,,,,,,,8,0,8,0,1,train57_vistrain2,2024-01-21_22h46.36.746,VisTraining2,2021.2.3,Win32,59.17159763,,,,,,,,,4,"[3,1,4,3,1,1]",1.08,3,5,2,black,,,
,,,,,,,,,,,,,,,9,0,9,0,1,train57_vistrain2,2024-01-21_22h46.36.746,VisTraining2,2021.2.3,Win32,59.17159763,,,,,,,,,3,"[3,1,4,3,1,1]",0.81,3,5,2,black,,,
,,,,,,,,,,,,,,,10,0,10,0,1,train57_vistrain2,2024-01-21_22h46.36.746,VisTraining2,2021.2.3,Win32,59.17159763,,,,,,,,,1,"[3,1,4,3,1,1]",0.27,3,5,2,black,,,
,,,,,,,,,,,,,,,11,0,11,0,1,train57_vistrain2,2024-01-21_22h46.36.746,VisTraining2,2021.2.3,Win32,59.17159763,,,,,,,,,1,"[3,1,4,3,1,1]",0.27,3,5,2,black,,,
,,,,,,,,,,,,,,,12,0,12,0,1,train57_vistrain2,2024-01-21_22h46.36.746,VisTraining2,2021.2.3,Win32,59.17159763,,,,,,,,,3,"[3,1,4,1,3,1]",0.81,3,5,2,black,,,
,,,,,,,,,,,,,,,13,0,13,0,1,train57_vistrain2,2024-01-21_22h46.36.746,VisTraining2,2021.2.3,Win32,59.17159763,,,,,,,,,1,"[3,1,4,1,3,1]",0.27,3,5,2,black,,,
,,,,,,,,,,,,,,,14,0,14,0,1,train57_vistrain2,2024-01-21_22h46.36.746,VisTraining2,2021.2.3,Win32,59.17159763,,,,,,,,,4,"[3,1,4,1,3,1]",1.08,3,5,2,black,,,
,,,,,,,,,,,,,,,15,0,15,0,1,train57_vistrain2,2024-01-21_22h46.36.746,VisTraining2,2021.2.3,Win32,59.17159763,,,,,,,,,1,"[3,1,4,1,3,1]",0.27,3,5,2,black,,,
,,,,,,,,,,,,,,,16,0,16,0,1,train57_vistrain2,2024-01-21_22h46.36.746,VisTraining2,2021.2.3,Win32,59.17159763,,,,,,,,,3,"[3,1,4,1,3,1]",0.81,3,5,2,black,,,
,,,,,,,,,,,,,,,17,0,17,0,1,train57_vistrain2,2024-01-21_22h46.36.746,VisTraining2,2021.2.3,Win32,59.17159763,,,,,,,,,1,"[3,1,4,1,3,1]",0.27,3,5,2,black,,,
,,,,,,,,,,,,,,,,,,,,train57_vistrain2,2024-01-21_22h46.36.746,VisTraining2,2021.2.3,Win32,59.17159763,,,2,15,0,15,0,1,,,,,,,,3.042,,
,,,,,,,,,,,,,,,0,0,0,0,1,train57_vistrain2,2024-01-21_22h46.36.746,VisTraining2,2021.2.3,Win32,59.17159763,,,,,,,,,3,"[3,1,4,2,2,1]",0.75,2,5,3,black,,,
,,,,,,,,,,,,,,,1,0,1,0,1,train57_vistrain2,2024-01-21_22h46.36.746,VisTraining2,2021.2.3,Win32,59.17159763,,,,,,,,,1,"[3,1,4,2,2,1]",0.25,2,5,3,black,,,
,,,,,,,,,,,,,,,2,0,2,0,1,train57_vistrain2,2024-01-21_22h46.36.746,VisTraining2,2021.2.3,Win32,59.17159763,,,,,,,,,4,"[3,1,4,2,2,1]",1,2,5,3,black,,,
,,,,,,,,,,,,,,,3,0,3,0,1,train57_vistrain2,2024-01-21_22h46.36.746,VisTraining2,2021.2.3,Win32,59.17159763,,,,,,,,,2,"[3,1,4,2,2,1]",0.5,2,5,3,black,,,
,,,,,,,,,,,,,,,4,0,4,0,1,train57_vistrain2,2024-01-21_22h46.36.746,VisTraining2,2021.2.3,Win32,59.17159763,,,,,,,,,2,"[3,1,4,2,2,1]",0.5,2,5,3,black,,,
,,,,,,,,,,,,,,,5,0,5,0,1,train57_vistrain2,2024-01-21_22h46.36.746,VisTraining2,2021.2.3,Win32,59.17159763,,,,,,,,,1,"[3,1,4,2,2,1]",0.25,2,5,3,black,,,
,,,,,,,,,,,,,,,6,0,6,0,1,train57_vistrain2,2024-01-21_22h46.36.746,VisTraining2,2021.2.3,Win32,59.17159763,,,,,,,,,3,"[3,1,4,2,2,1]",0.75,2,5,3,black,,,
,,,,,,,,,,,,,,,7,0,7,0,1,train57_vistrain2,2024-01-21_22h46.36.746,VisTraining2,2021.2.3,Win32,59.17159763,,,,,,,,,1,"[3,1,4,2,2,1]",0.25,2,5,3,black,,,
,,,,,,,,,,,,,,,8,0,8,0,1,train57_vistrain2,2024-01-21_22h46.36.746,VisTraining2,2021.2.3,Win32,59.17159763,,,,,,,,,4,"[3,1,4,2,2,1]",1,2,5,3,black,,,
,,,,,,,,,,,,,,,9,0,9,0,1,train57_vistrain2,2024-01-21_22h46.36.746,VisTraining2,2021.2.3,Win32,59.17159763,,,,,,,,,2,"[3,1,4,2,2,1]",0.5,2,5,3,black,,,
,,,,,,,,,,,,,,,10,0,10,0,1,train57_vistrain2,2024-01-21_22h46.36.746,VisTraining2,2021.2.3,Win32,59.17159763,,,,,,,,,2,"[3,1,4,2,2,1]",0.5,2,5,3,black,,,
,,,,,,,,,,,,,,,11,0,11,0,1,train57_vistrain2,2024-01-21_22h46.36.746,VisTraining2,2021.2.3,Win32,59.17159763,,,,,,,,,1,"[3,1,4,2,2,1]",0.25,2,5,3,black,,,
,,,,,,,,,,,,,,,12,0,12,0,1,train57_vistrain2,2024-01-21_22h46.36.746,VisTraining2,2021.2.3,Win32,59.17159763,,,,,,,,,1,"[1,3,4,2,2,1]",0.25,2,5,3,black,,,
,,,,,,,,,,,,,,,13,0,13,0,1,train57_vistrain2,2024-01-21_22h46.36.746,VisTraining2,2021.2.3,Win32,59.17159763,,,,,,,,,3,"[1,3,4,2,2,1]",0.75,2,5,3,black,,,
,,,,,,,,,,,,,,,14,0,14,0,1,train57_vistrain2,2024-01-21_22h46.36.746,VisTraining2,2021.2.3,Win32,59.17159763,,,,,,,,,4,"[1,3,4,2,2,1]",1,2,5,3,black,,,
,,,,,,,,,,,,,,,15,0,15,0,1,train57_vistrain2,2024-01-21_22h46.36.746,VisTraining2,2021.2.3,Win32,59.17159763,,,,,,,,,2,"[1,3,4,2,2,1]",0.5,2,5,3,black,,,
,,,,,,,,,,,,,,,16,0,16,0,1,train57_vistrain2,2024-01-21_22h46.36.746,VisTraining2,2021.2.3,Win32,59.17159763,,,,,,,,,2,"[1,3,4,2,2,1]",0.5,2,5,3,black,,,
,,,,,,,,,,,,,,,17,0,17,0,1,train57_vistrain2,2024-01-21_22h46.36.746,VisTraining2,2021.2.3,Win32,59.17159763,,,,,,,,,1,"[1,3,4,2,2,1]",0.25,2,5,3,black,,,
,,,,,,,,,,,,,,,,,,,,train57_vistrain2,2024-01-21_22h46.36.746,VisTraining2,2021.2.3,Win32,59.17159763,,,2,16,0,16,0,1,,,,,,,,2.1129,,
,,,,,,,,,,,,,,,0,0,0,0,1,train57_vistrain2,2024-01-21_22h46.36.746,VisTraining2,2021.2.3,Win32,59.17159763,,,,,,,,,2,"[2,1,1,2,2,1,3,1]",0.54,3,7,1,black,,,
,,,,,,,,,,,,,,,1,0,1,0,1,train57_vistrain2,2024-01-21_22h46.36.746,VisTraining2,2021.2.3,Win32,59.17159763,,,,,,,,,1,"[2,1,1,2,2,1,3,1]",0.27,3,7,1,black,,,
,,,,,,,,,,,,,,,2,0,2,0,1,train57_vistrain2,2024-01-21_22h46.36.746,VisTraining2,2021.2.3,Win32,59.17159763,,,,,,,,,1,"[2,1,1,2,2,1,3,1]",0.27,3,7,1,black,,,
,,,,,,,,,,,,,,,3,0,3,0,1,train57_vistrain2,2024-01-21_22h46.36.746,VisTraining2,2021.2.3,Win32,59.17159763,,,,,,,,,2,"[2,1,1,2,2,1,3,1]",0.54,3,7,1,black,,,
,,,,,,,,,,,,,,,4,0,4,0,1,train57_vistrain2,2024-01-21_22h46.36.746,VisTraining2,2021.2.3,Win32,59.17159763,,,,,,,,,2,"[2,1,1,2,2,1,3,1]",0.54,3,7,1,black,,,
,,,,,,,,,,,,,,,5,0,5,0,1,train57_vistrain2,2024-01-21_22h46.36.746,VisTraining2,2021.2.3,Win32,59.17159763,,,,,,,,,1,"[2,1,1,2,2,1,3,1]",0.27,3,7,1,black,,,
,,,,,,,,,,,,,,,6,0,6,0,1,train57_vistrain2,2024-01-21_22h46.36.746,VisTraining2,2021.2.3,Win32,59.17159763,,,,,,,,,3,"[2,1,1,2,2,1,3,1]",0.81,3,7,1,black,,,
,,,,,,,,,,,,,,,7,0,7,0,1,train57_vistrain2,2024-01-21_22h46.36.746,VisTraining2,2021.2.3,Win32,59.17159763,,,,,,,,,1,"[2,1,1,2,2,1,3,1]",0.27,3,7,1,black,,,
,,,,,,,,,,,,,,,8,0,8,0,1,train57_vistrain2,2024-01-21_22h46.36.746,VisTraining2,2021.2.3,Win32,59.17159763,,,,,,,,,2,"[2,1,1,2,2,3,1,1]",0.54,3,7,1,black,,,
,,,,,,,,,,,,,,,9,0,9,0,1,train57_vistrain2,2024-01-21_22h46.36.746,VisTraining2,2021.2.3,Win32,59.17159763,,,,,,,,,1,"[2,1,1,2,2,3,1,1]",0.27,3,7,1,black,,,
,,,,,,,,,,,,,,,10,0,10,0,1,train57_vistrain2,2024-01-21_22h46.36.746,VisTraining2,2021.2.3,Win32,59.17159763,,,,,,,,,1,"[2,1,1,2,2,3,1,1]",0.27,3,7,1,black,,,
,,,,,,,,,,,,,,,11,0,11,0,1,train57_vistrain2,2024-01-21_22h46.36.746,VisTraining2,2021.2.3,Win32,59.17159763,,,,,,,,,2,"[2,1,1,2,2,3,1,1]",0.54,3,7,1,black,,,
,,,,,,,,,,,,,,,12,0,12,0,1,train57_vistrain2,2024-01-21_22h46.36.746,VisTraining2,2021.2.3,Win32,59.17159763,,,,,,,,,2,"[2,1,1,2,2,3,1,1]",0.54,3,7,1,black,,,
,,,,,,,,,,,,,,,13,0,13,0,1,train57_vistrain2,2024-01-21_22h46.36.746,VisTraining2,2021.2.3,Win32,59.17159763,,,,,,,,,3,"[2,1,1,2,2,3,1,1]",0.81,3,7,1,black,,,
,,,,,,,,,,,,,,,14,0,14,0,1,train57_vistrain2,2024-01-21_22h46.36.746,VisTraining2,2021.2.3,Win32,59.17159763,,,,,,,,,1,"[2,1,1,2,2,3,1,1]",0.27,3,7,1,black,,,
,,,,,,,,,,,,,,,15,0,15,0,1,train57_vistrain2,2024-01-21_22h46.36.746,VisTraining2,2021.2.3,Win32,59.17159763,,,,,,,,,1,"[2,1,1,2,2,3,1,1]",0.27,3,7,1,black,,,
,,,,,,,,,,,,,,,16,0,16,0,1,train57_vistrain2,2024-01-21_22h46.36.746,VisTraining2,2021.2.3,Win32,59.17159763,,,,,,,,,2,"[2,1,1,2,2,3,1,1]",0.54,3,7,1,black,,,
,,,,,,,,,,,,,,,17,0,17,0,1,train57_vistrain2,2024-01-21_22h46.36.746,VisTraining2,2021.2.3,Win32,59.17159763,,,,,,,,,1,"[2,1,1,2,2,3,1,1]",0.27,3,7,1,black,,,
,,,,,,,,,,,,,,,18,0,18,0,1,train57_vistrain2,2024-01-21_22h46.36.746,VisTraining2,2021.2.3,Win32,59.17159763,,,,,,,,,1,"[2,1,1,2,2,3,1,1]",0.27,3,7,1,black,,,
,,,,,,,,,,,,,,,19,0,19,0,1,train57_vistrain2,2024-01-21_22h46.36.746,VisTraining2,2021.2.3,Win32,59.17159763,,,,,,,,,2,"[2,1,1,2,2,3,1,1]",0.54,3,7,1,black,,,
,,,,,,,,,,,,,,,20,0,20,0,1,train57_vistrain2,2024-01-21_22h46.36.746,VisTraining2,2021.2.3,Win32,59.17159763,,,,,,,,,2,"[2,1,1,2,2,3,1,1]",0.54,3,7,1,black,,,
,,,,,,,,,,,,,,,21,0,21,0,1,train57_vistrain2,2024-01-21_22h46.36.746,VisTraining2,2021.2.3,Win32,59.17159763,,,,,,,,,3,"[2,1,1,2,2,3,1,1]",0.81,3,7,1,black,,,
,,,,,,,,,,,,,,,22,0,22,0,1,train57_vistrain2,2024-01-21_22h46.36.746,VisTraining2,2021.2.3,Win32,59.17159763,,,,,,,,,1,"[2,1,1,2,2,3,1,1]",0.27,3,7,1,black,,,
,,,,,,,,,,,,,,,23,0,23,0,1,train57_vistrain2,2024-01-21_22h46.36.746,VisTraining2,2021.2.3,Win32,59.17159763,,,,,,,,,1,"[2,1,1,2,2,3,1,1]",0.27,3,7,1,black,,,
,,,,,,,,,,,,,,,,,,,,train57_vistrain2,2024-01-21_22h46.36.746,VisTraining2,2021.2.3,Win32,59.17159763,,,1,17,0,17,0,1,,,,,,,,1.0172,,
,,,,,,,,,,,,,,,0,0,0,0,1,train57_vistrain2,2024-01-21_22h46.36.746,VisTraining2,2021.2.3,Win32,59.17159763,,,,,,,,,1,"[1,3,2,2,1,1,2,1]",0.23,1,7,1,black,,,
,,,,,,,,,,,,,,,1,0,1,0,1,train57_vistrain2,2024-01-21_22h46.36.746,VisTraining2,2021.2.3,Win32,59.17159763,,,,,,,,,3,"[1,3,2,2,1,1,2,1]",0.69,1,7,1,black,,,
,,,,,,,,,,,,,,,2,0,2,0,1,train57_vistrain2,2024-01-21_22h46.36.746,VisTraining2,2021.2.3,Win32,59.17159763,,,,,,,,,2,"[1,3,2,2,1,1,2,1]",0.46,1,7,1,black,,,
,,,,,,,,,,,,,,,3,0,3,0,1,train57_vistrain2,2024-01-21_22h46.36.746,VisTraining2,2021.2.3,Win32,59.17159763,,,,,,,,,2,"[1,3,2,2,1,1,2,1]",0.46,1,7,1,black,,,
,,,,,,,,,,,,,,,4,0,4,0,1,train57_vistrain2,2024-01-21_22h46.36.746,VisTraining2,2021.2.3,Win32,59.17159763,,,,,,,,,1,"[1,3,2,2,1,1,2,1]",0.23,1,7,1,black,,,
,,,,,,,,,,,,,,,5,0,5,0,1,train57_vistrain2,2024-01-21_22h46.36.746,VisTraining2,2021.2.3,Win32,59.17159763,,,,,,,,,1,"[1,3,2,2,1,1,2,1]",0.23,1,7,1,black,,,
,,,,,,,,,,,,,,,6,0,6,0,1,train57_vistrain2,2024-01-21_22h46.36.746,VisTraining2,2021.2.3,Win32,59.17159763,,,,,,,,,2,"[1,3,2,2,1,1,2,1]",0.46,1,7,1,black,,,
,,,,,,,,,,,,,,,7,0,7,0,1,train57_vistrain2,2024-01-21_22h46.36.746,VisTraining2,2021.2.3,Win32,59.17159763,,,,,,,,,1,"[1,3,2,2,1,1,2,1]",0.23,1,7,1,black,,,
,,,,,,,,,,,,,,,8,0,8,0,1,train57_vistrain2,2024-01-21_22h46.36.746,VisTraining2,2021.2.3,Win32,59.17159763,,,,,,,,,3,"[3,1,2,2,1,1,2,1]",0.69,1,7,1,black,,,
,,,,,,,,,,,,,,,9,0,9,0,1,train57_vistrain2,2024-01-21_22h46.36.746,VisTraining2,2021.2.3,Win32,59.17159763,,,,,,,,,1,"[3,1,2,2,1,1,2,1]",0.23,1,7,1,black,,,
,,,,,,,,,,,,,,,10,0,10,0,1,train57_vistrain2,2024-01-21_22h46.36.746,VisTraining2,2021.2.3,Win32,59.17159763,,,,,,,,,2,"[3,1,2,2,1,1,2,1]",0.46,1,7,1,black,,,
,,,,,,,,,,,,,,,11,0,11,0,1,train57_vistrain2,2024-01-21_22h46.36.746,VisTraining2,2021.2.3,Win32,59.17159763,,,,,,,,,2,"[3,1,2,2,1,1,2,1]",0.46,1,7,1,black,,,
,,,,,,,,,,,,,,,12,0,12,0,1,train57_vistrain2,2024-01-21_22h46.36.746,VisTraining2,2021.2.3,Win32,59.17159763,,,,,,,,,1,"[3,1,2,2,1,1,2,1]",0.23,1,7,1,black,,,
,,,,,,,,,,,,,,,13,0,13,0,1,train57_vistrain2,2024-01-21_22h46.36.746,VisTraining2,2021.2.3,Win32,59.17159763,,,,,,,,,1,"[3,1,2,2,1,1,2,1]",0.23,1,7,1,black,,,
,,,,,,,,,,,,,,,14,0,14,0,1,train57_vistrain2,2024-01-21_22h46.36.746,VisTraining2,2021.2.3,Win32,59.17159763,,,,,,,,,2,"[3,1,2,2,1,1,2,1]",0.46,1,7,1,black,,,
,,,,,,,,,,,,,,,15,0,15,0,1,train57_vistrain2,2024-01-21_22h46.36.746,VisTraining2,2021.2.3,Win32,59.17159763,,,,,,,,,1,"[3,1,2,2,1,1,2,1]",0.23,1,7,1,black,,,
,,,,,,,,,,,,,,,16,0,16,0,1,train57_vistrain2,2024-01-21_22h46.36.746,VisTraining2,2021.2.3,Win32,59.17159763,,,,,,,,,3,"[3,1,2,2,1,1,2,1]",0.69,1,7,1,black,,,
,,,,,,,,,,,,,,,17,0,17,0,1,train57_vistrain2,2024-01-21_22h46.36.746,VisTraining2,2021.2.3,Win32,59.17159763,,,,,,,,,1,"[3,1,2,2,1,1,2,1]",0.23,1,7,1,black,,,
,,,,,,,,,,,,,,,18,0,18,0,1,train57_vistrain2,2024-01-21_22h46.36.746,VisTraining2,2021.2.3,Win32,59.17159763,,,,,,,,,2,"[3,1,2,2,1,1,2,1]",0.46,1,7,1,black,,,
,,,,,,,,,,,,,,,19,0,19,0,1,train57_vistrain2,2024-01-21_22h46.36.746,VisTraining2,2021.2.3,Win32,59.17159763,,,,,,,,,2,"[3,1,2,2,1,1,2,1]",0.46,1,7,1,black,,,
,,,,,,,,,,,,,,,20,0,20,0,1,train57_vistrain2,2024-01-21_22h46.36.746,VisTraining2,2021.2.3,Win32,59.17159763,,,,,,,,,1,"[3,1,2,2,1,1,2,1]",0.23,1,7,1,black,,,
,,,,,,,,,,,,,,,21,0,21,0,1,train57_vistrain2,2024-01-21_22h46.36.746,VisTraining2,2021.2.3,Win32,59.17159763,,,,,,,,,1,"[3,1,2,2,1,1,2,1]",0.23,1,7,1,black,,,
,,,,,,,,,,,,,,,22,0,22,0,1,train57_vistrain2,2024-01-21_22h46.36.746,VisTraining2,2021.2.3,Win32,59.17159763,,,,,,,,,2,"[3,1,2,2,1,1,2,1]",0.46,1,7,1,black,,,
,,,,,,,,,,,,,,,23,0,23,0,1,train57_vistrain2,2024-01-21_22h46.36.746,VisTraining2,2021.2.3,Win32,59.17159763,,,,,,,,,1,"[3,1,2,2,1,1,2,1]",0.23,1,7,1,black,,,
,,,,,,,,,,,,,,,,,,,,train57_vistrain2,2024-01-21_22h46.36.746,VisTraining2,2021.2.3,Win32,59.17159763,,,1,18,0,18,0,1,,,,,,,,1.0098,,
,,,,,,,,,,,,,,,0,0,0,0,1,train57_vistrain2,2024-01-21_22h46.36.746,VisTraining2,2021.2.3,Win32,59.17159763,,,,,,,,,2,"[2,1,1,1,3,4,1]",0.5,2,6,3,black,,,
,,,,,,,,,,,,,,,1,0,1,0,1,train57_vistrain2,2024-01-21_22h46.36.746,VisTraining2,2021.2.3,Win32,59.17159763,,,,,,,,,1,"[2,1,1,1,3,4,1]",0.25,2,6,3,black,,,
,,,,,,,,,,,,,,,2,0,2,0,1,train57_vistrain2,2024-01-21_22h46.36.746,VisTraining2,2021.2.3,Win32,59.17159763,,,,,,,,,1,"[2,1,1,1,3,4,1]",0.25,2,6,3,black,,,
,,,,,,,,,,,,,,,3,0,3,0,1,train57_vistrain2,2024-01-21_22h46.36.746,VisTraining2,2021.2.3,Win32,59.17159763,,,,,,,,,1,"[2,1,1,1,3,4,1]",0.25,2,6,3,black,,,
,,,,,,,,,,,,,,,4,0,4,0,1,train57_vistrain2,2024-01-21_22h46.36.746,VisTraining2,2021.2.3,Win32,59.17159763,,,,,,,,,3,"[2,1,1,1,3,4,1]",0.75,2,6,3,black,,,
,,,,,,,,,,,,,,,5,0,5,0,1,train57_vistrain2,2024-01-21_22h46.36.746,VisTraining2,2021.2.3,Win32,59.17159763,,,,,,,,,4,"[2,1,1,1,3,4,1]",1,2,6,3,black,,,
,,,,,,,,,,,,,,,6,0,6,0,1,train57_vistrain2,2024-01-21_22h46.36.746,VisTraining2,2021.2.3,Win32,59.17159763,,,,,,,,,1,"[2,1,1,1,3,4,1]",0.25,2,6,3,black,,,
,,,,,,,,,,,,,,,7,0,7,0,1,train57_vistrain2,2024-01-21_22h46.36.746,VisTraining2,2021.2.3,Win32,59.17159763,,,,,,,,,2,"[2,1,1,1,3,4,1]",0.5,2,6,3,black,,,
,,,,,,,,,,,,,,,8,0,8,0,1,train57_vistrain2,2024-01-21_22h46.36.746,VisTraining2,2021.2.3,Win32,59.17159763,,,,,,,,,1,"[2,1,1,1,3,4,1]",0.25,2,6,3,black,,,
,,,,,,,,,,,,,,,9,0,9,0,1,train57_vistrain2,2024-01-21_22h46.36.746,VisTraining2,2021.2.3,Win32,59.17159763,,,,,,,,,1,"[2,1,1,1,3,4,1]",0.25,2,6,3,black,,,
,,,,,,,,,,,,,,,10,0,10,0,1,train57_vistrain2,2024-01-21_22h46.36.746,VisTraining2,2021.2.3,Win32,59.17159763,,,,,,,,,1,"[2,1,1,1,3,4,1]",0.25,2,6,3,black,,,
,,,,,,,,,,,,,,,11,0,11,0,1,train57_vistrain2,2024-01-21_22h46.36.746,VisTraining2,2021.2.3,Win32,59.17159763,,,,,,,,,3,"[2,1,1,1,3,4,1]",0.75,2,6,3,black,,,
,,,,,,,,,,,,,,,12,0,12,0,1,train57_vistrain2,2024-01-21_22h46.36.746,VisTraining2,2021.2.3,Win32,59.17159763,,,,,,,,,4,"[2,1,1,1,3,4,1]",1,2,6,3,black,,,
,,,,,,,,,,,,,,,13,0,13,0,1,train57_vistrain2,2024-01-21_22h46.36.746,VisTraining2,2021.2.3,Win32,59.17159763,,,,,,,,,1,"[2,1,1,1,3,4,1]",0.25,2,6,3,black,,,
,,,,,,,,,,,,,,,14,0,14,0,1,train57_vistrain2,2024-01-21_22h46.36.746,VisTraining2,2021.2.3,Win32,59.17159763,,,,,,,,,2,"[2,1,1,3,1,4,1]",0.5,2,6,3,black,,,
,,,,,,,,,,,,,,,15,0,15,0,1,train57_vistrain2,2024-01-21_22h46.36.746,VisTraining2,2021.2.3,Win32,59.17159763,,,,,,,,,1,"[2,1,1,3,1,4,1]",0.25,2,6,3,black,,,
,,,,,,,,,,,,,,,16,0,16,0,1,train57_vistrain2,2024-01-21_22h46.36.746,VisTraining2,2021.2.3,Win32,59.17159763,,,,,,,,,1,"[2,1,1,3,1,4,1]",0.25,2,6,3,black,,,
,,,,,,,,,,,,,,,17,0,17,0,1,train57_vistrain2,2024-01-21_22h46.36.746,VisTraining2,2021.2.3,Win32,59.17159763,,,,,,,,,3,"[2,1,1,3,1,4,1]",0.75,2,6,3,black,,,
,,,,,,,,,,,,,,,18,0,18,0,1,train57_vistrain2,2024-01-21_22h46.36.746,VisTraining2,2021.2.3,Win32,59.17159763,,,,,,,,,1,"[2,1,1,3,1,4,1]",0.25,2,6,3,black,,,
,,,,,,,,,,,,,,,19,0,19,0,1,train57_vistrain2,2024-01-21_22h46.36.746,VisTraining2,2021.2.3,Win32,59.17159763,,,,,,,,,4,"[2,1,1,3,1,4,1]",1,2,6,3,black,,,
,,,,,,,,,,,,,,,20,0,20,0,1,train57_vistrain2,2024-01-21_22h46.36.746,VisTraining2,2021.2.3,Win32,59.17159763,,,,,,,,,1,"[2,1,1,3,1,4,1]",0.25,2,6,3,black,,,
,,,,,,,,,,,,,,,,,,,,train57_vistrain2,2024-01-21_22h46.36.746,VisTraining2,2021.2.3,Win32,59.17159763,,,1,19,0,19,0,1,,,,,,,,0.9361,,
,,,,,,,,,,,,,,,0,0,0,0,1,train57_vistrain2,2024-01-21_22h46.36.746,VisTraining2,2021.2.3,Win32,59.17159763,,,,,,,,,3,"[3,1,2,2,1,3,1]",0.81,3,6,2,black,,,
,,,,,,,,,,,,,,,1,0,1,0,1,train57_vistrain2,2024-01-21_22h46.36.746,VisTraining2,2021.2.3,Win32,59.17159763,,,,,,,,,1,"[3,1,2,2,1,3,1]",0.27,3,6,2,black,,,
,,,,,,,,,,,,,,,2,0,2,0,1,train57_vistrain2,2024-01-21_22h46.36.746,VisTraining2,2021.2.3,Win32,59.17159763,,,,,,,,,2,"[3,1,2,2,1,3,1]",0.54,3,6,2,black,,,
,,,,,,,,,,,,,,,3,0,3,0,1,train57_vistrain2,2024-01-21_22h46.36.746,VisTraining2,2021.2.3,Win32,59.17159763,,,,,,,,,2,"[3,1,2,2,1,3,1]",0.54,3,6,2,black,,,
,,,,,,,,,,,,,,,4,0,4,0,1,train57_vistrain2,2024-01-21_22h46.36.746,VisTraining2,2021.2.3,Win32,59.17159763,,,,,,,,,1,"[3,1,2,2,1,3,1]",0.27,3,6,2,black,,,
,,,,,,,,,,,,,,,5,0,5,0,1,train57_vistrain2,2024-01-21_22h46.36.746,VisTraining2,2021.2.3,Win32,59.17159763,,,,,,,,,3,"[3,1,2,2,1,3,1]",0.81,3,6,2,black,,,
,,,,,,,,,,,,,,,6,0,6,0,1,train57_vistrain2,2024-01-21_22h46.36.746,VisTraining2,2021.2.3,Win32,59.17159763,,,,,,,,,1,"[3,1,2,2,1,3,1]",0.27,3,6,2,black,,,
,,,,,,,,,,,,,,,7,0,7,0,1,train57_vistrain2,2024-01-21_22h46.36.746,VisTraining2,2021.2.3,Win32,59.17159763,,,,,,,,,3,"[3,1,2,2,3,1,1]",0.81,3,6,2,black,,,
,,,,,,,,,,,,,,,8,0,8,0,1,train57_vistrain2,2024-01-21_22h46.36.746,VisTraining2,2021.2.3,Win32,59.17159763,,,,,,,,,1,"[3,1,2,2,3,1,1]",0.27,3,6,2,black,,,
,,,,,,,,,,,,,,,9,0,9,0,1,train57_vistrain2,2024-01-21_22h46.36.746,VisTraining2,2021.2.3,Win32,59.17159763,,,,,,,,,2,"[3,1,2,2,3,1,1]",0.54,3,6,2,black,,,
,,,,,,,,,,,,,,,10,0,10,0,1,train57_vistrain2,2024-01-21_22h46.36.746,VisTraining2,2021.2.3,Win32,59.17159763,,,,,,,,,2,"[3,1,2,2,3,1,1]",0.54,3,6,2,black,,,
,,,,,,,,,,,,,,,11,0,11,0,1,train57_vistrain2,2024-01-21_22h46.36.746,VisTraining2,2021.2.3,Win32,59.17159763,,,,,,,,,3,"[3,1,2,2,3,1,1]",0.81,3,6,2,black,,,
,,,,,,,,,,,,,,,12,0,12,0,1,train57_vistrain2,2024-01-21_22h46.36.746,VisTraining2,2021.2.3,Win32,59.17159763,,,,,,,,,1,"[3,1,2,2,3,1,1]",0.27,3,6,2,black,,,
,,,,,,,,,,,,,,,13,0,13,0,1,train57_vistrain2,2024-01-21_22h46.36.746,VisTraining2,2021.2.3,Win32,59.17159763,,,,,,,,,1,"[3,1,2,2,3,1,1]",0.27,3,6,2,black,,,
,,,,,,,,,,,,,,,14,0,14,0,1,train57_vistrain2,2024-01-21_22h46.36.746,VisTraining2,2021.2.3,Win32,59.17159763,,,,,,,,,3,"[3,1,2,2,1,3,1]",0.81,3,6,2,black,,,
,,,,,,,,,,,,,,,15,0,15,0,1,train57_vistrain2,2024-01-21_22h46.36.746,VisTraining2,2021.2.3,Win32,59.17159763,,,,,,,,,1,"[3,1,2,2,1,3,1]",0.27,3,6,2,black,,,
,,,,,,,,,,,,,,,16,0,16,0,1,train57_vistrain2,2024-01-21_22h46.36.746,VisTraining2,2021.2.3,Win32,59.17159763,,,,,,,,,2,"[3,1,2,2,1,3,1]",0.54,3,6,2,black,,,
,,,,,,,,,,,,,,,17,0,17,0,1,train57_vistrain2,2024-01-21_22h46.36.746,VisTraining2,2021.2.3,Win32,59.17159763,,,,,,,,,2,"[3,1,2,2,1,3,1]",0.54,3,6,2,black,,,
,,,,,,,,,,,,,,,18,0,18,0,1,train57_vistrain2,2024-01-21_22h46.36.746,VisTraining2,2021.2.3,Win32,59.17159763,,,,,,,,,1,"[3,1,2,2,1,3,1]",0.27,3,6,2,black,,,
,,,,,,,,,,,,,,,19,0,19,0,1,train57_vistrain2,2024-01-21_22h46.36.746,VisTraining2,2021.2.3,Win32,59.17159763,,,,,,,,,3,"[3,1,2,2,1,3,1]",0.81,3,6,2,black,,,
,,,,,,,,,,,,,,,20,0,20,0,1,train57_vistrain2,2024-01-21_22h46.36.746,VisTraining2,2021.2.3,Win32,59.17159763,,,,,,,,,1,"[3,1,2,2,1,3,1]",0.27,3,6,2,black,,,
,,,,,,,,,,,,,,,,,,,,train57_vistrain2,2024-01-21_22h46.36.746,VisTraining2,2021.2.3,Win32,59.17159763,,,3,20,0,20,0,1,,,,,,,,0.8419,,
,,,,,,,,,,,,,,,0,0,0,0,1,train57_vistrain2,2024-01-21_22h46.36.746,VisTraining2,2021.2.3,Win32,59.17159763,,,,,,,,,3,"[3,1,1,3,2,2,1]",0.75,2,6,2,black,,,
,,,,,,,,,,,,,,,1,0,1,0,1,train57_vistrain2,2024-01-21_22h46.36.746,VisTraining2,2021.2.3,Win32,59.17159763,,,,,,,,,1,"[3,1,1,3,2,2,1]",0.25,2,6,2,black,,,
,,,,,,,,,,,,,,,2,0,2,0,1,train57_vistrain2,2024-01-21_22h46.36.746,VisTraining2,2021.2.3,Win32,59.17159763,,,,,,,,,1,"[3,1,1,3,2,2,1]",0.25,2,6,2,black,,,
,,,,,,,,,,,,,,,3,0,3,0,1,train57_vistrain2,2024-01-21_22h46.36.746,VisTraining2,2021.2.3,Win32,59.17159763,,,,,,,,,3,"[3,1,1,3,2,2,1]",0.75,2,6,2,black,,,
,,,,,,,,,,,,,,,4,0,4,0,1,train57_vistrain2,2024-01-21_22h46.36.746,VisTraining2,2021.2.3,Win32,59.17159763,,,,,,,,,2,"[3,1,1,3,2,2,1]",0.5,2,6,2,black,,,
,,,,,,,,,,,,,,,5,0,5,0,1,train57_vistrain2,2024-01-21_22h46.36.746,VisTraining2,2021.2.3,Win32,59.17159763,,,,,,,,,2,"[3,1,1,3,2,2,1]",0.5,2,6,2,black,,,
,,,,,,,,,,,,,,,6,0,6,0,1,train57_vistrain2,2024-01-21_22h46.36.746,VisTraining2,2021.2.3,Win32,59.17159763,,,,,,,,,1,"[3,1,1,3,2,2,1]",0.25,2,6,2,black,,,
,,,,,,,,,,,,,,,7,0,7,0,1,train57_vistrain2,2024-01-21_22h46.36.746,VisTraining2,2021.2.3,Win32,59.17159763,,,,,,,,,3,"[3,1,3,1,2,2,1]",0.75,2,6,2,black,,,
,,,,,,,,,,,,,,,8,0,8,0,1,train57_vistrain2,2024-01-21_22h46.36.746,VisTraining2,2021.2.3,Win32,59.17159763,,,,,,,,,1,"[3,1,3,1,2,2,1]",0.25,2,6,2,black,,,
,,,,,,,,,,,,,,,9,0,9,0,1,train57_vistrain2,2024-01-21_22h46.36.746,VisTraining2,2021.2.3,Win32,59.17159763,,,,,,,,,3,"[3,1,3,1,2,2,1]",0.75,2,6,2,black,,,
,,,,,,,,,,,,,,,10,0,10,0,1,train57_vistrain2,2024-01-21_22h46.36.746,VisTraining2,2021.2.3,Win32,59.17159763,,,,,,,,,1,"[3,1,3,1,2,2,1]",0.25,2,6,2,black,,,
,,,,,,,,,,,,,,,11,0,11,0,1,train57_vistrain2,2024-01-21_22h46.36.746,VisTraining2,2021.2.3,Win32,59.17159763,,,,,,,,,2,"[3,1,3,1,2,2,1]",0.5,2,6,2,black,,,
,,,,,,,,,,,,,,,12,0,12,0,1,train57_vistrain2,2024-01-21_22h46.36.746,VisTraining2,2021.2.3,Win32,59.17159763,,,,,,,,,2,"[3,1,3,1,2,2,1]",0.5,2,6,2,black,,,
,,,,,,,,,,,,,,,13,0,13,0,1,train57_vistrain2,2024-01-21_22h46.36.746,VisTraining2,2021.2.3,Win32,59.17159763,,,,,,,,,1,"[3,1,3,1,2,2,1]",0.25,2,6,2,black,,,
,,,,,,,,,,,,,,,14,0,14,0,1,train57_vistrain2,2024-01-21_22h46.36.746,VisTraining2,2021.2.3,Win32,59.17159763,,,,,,,,,3,"[3,1,1,3,2,2,1]",0.75,2,6,2,black,,,
,,,,,,,,,,,,,,,15,0,15,0,1,train57_vistrain2,2024-01-21_22h46.36.746,VisTraining2,2021.2.3,Win32,59.17159763,,,,,,,,,1,"[3,1,1,3,2,2,1]",0.25,2,6,2,black,,,
,,,,,,,,,,,,,,,16,0,16,0,1,train57_vistrain2,2024-01-21_22h46.36.746,VisTraining2,2021.2.3,Win32,59.17159763,,,,,,,,,1,"[3,1,1,3,2,2,1]",0.25,2,6,2,black,,,
,,,,,,,,,,,,,,,17,0,17,0,1,train57_vistrain2,2024-01-21_22h46.36.746,VisTraining2,2021.2.3,Win32,59.17159763,,,,,,,,,3,"[3,1,1,3,2,2,1]",0.75,2,6,2,black,,,
,,,,,,,,,,,,,,,18,0,18,0,1,train57_vistrain2,2024-01-21_22h46.36.746,VisTraining2,2021.2.3,Win32,59.17159763,,,,,,,,,2,"[3,1,1,3,2,2,1]",0.5,2,6,2,black,,,
,,,,,,,,,,,,,,,19,0,19,0,1,train57_vistrain2,2024-01-21_22h46.36.746,VisTraining2,2021.2.3,Win32,59.17159763,,,,,,,,,2,"[3,1,1,3,2,2,1]",0.5,2,6,2,black,,,
,,,,,,,,,,,,,,,20,0,20,0,1,train57_vistrain2,2024-01-21_22h46.36.746,VisTraining2,2021.2.3,Win32,59.17159763,,,,,,,,,1,"[3,1,1,3,2,2,1]",0.25,2,6,2,black,,,
,,,,,,,,,,,,,,,,,,,,train57_vistrain2,2024-01-21_22h46.36.746,VisTraining2,2021.2.3,Win32,59.17159763,,,3,21,0,21,0,1,,,,,,,,0.8275,,
,,,,,,,,,,,,,,,0,0,0,0,1,train57_vistrain2,2024-01-21_22h46.36.746,VisTraining2,2021.2.3,Win32,59.17159763,,,,,,,,,1,"[1,1,2,3,1,2,2,1]",0.27,3,7,3,black,,,
,,,,,,,,,,,,,,,1,0,1,0,1,train57_vistrain2,2024-01-21_22h46.36.746,VisTraining2,2021.2.3,Win32,59.17159763,,,,,,,,,1,"[1,1,2,3,1,2,2,1]",0.27,3,7,3,black,,,
,,,,,,,,,,,,,,,2,0,2,0,1,train57_vistrain2,2024-01-21_22h46.36.746,VisTraining2,2021.2.3,Win32,59.17159763,,,,,,,,,2,"[1,1,2,3,1,2,2,1]",0.54,3,7,3,black,,,
,,,,,,,,,,,,,,,3,0,3,0,1,train57_vistrain2,2024-01-21_22h46.36.746,VisTraining2,2021.2.3,Win32,59.17159763,,,,,,,,,3,"[1,1,2,3,1,2,2,1]",0.81,3,7,3,black,,,
,,,,,,,,,,,,,,,4,0,4,0,1,train57_vistrain2,2024-01-21_22h46.36.746,VisTraining2,2021.2.3,Win32,59.17159763,,,,,,,,,1,"[1,1,2,3,1,2,2,1]",0.27,3,7,3,black,,,
,,,,,,,,,,,,,,,5,0,5,0,1,train57_vistrain2,2024-01-21_22h46.36.746,VisTraining2,2021.2.3,Win32,59.17159763,,,,,,,,,2,"[1,1,2,3,1,2,2,1]",0.54,3,7,3,black,,,
,,,,,,,,,,,,,,,6,0,6,0,1,train57_vistrain2,2024-01-21_22h46.36.746,VisTraining2,2021.2.3,Win32,59.17159763,,,,,,,,,2,"[1,1,2,3,1,2,2,1]",0.54,3,7,3,black,,,
,,,,,,,,,,,,,,,7,0,7,0,1,train57_vistrain2,2024-01-21_22h46.36.746,VisTraining2,2021.2.3,Win32,59.17159763,,,,,,,,,1,"[1,1,2,3,1,2,2,1]",0.27,3,7,3,black,,,
,,,,,,,,,,,,,,,8,0,8,0,1,train57_vistrain2,2024-01-21_22h46.36.746,VisTraining2,2021.2.3,Win32,59.17159763,,,,,,,,,1,"[1,1,2,3,1,2,2,1]",0.27,3,7,3,black,,,
,,,,,,,,,,,,,,,9,0,9,0,1,train57_vistrain2,2024-01-21_22h46.36.746,VisTraining2,2021.2.3,Win32,59.17159763,,,,,,,,,1,"[1,1,2,3,1,2,2,1]",0.27,3,7,3,black,,,
,,,,,,,,,,,,,,,10,0,10,0,1,train57_vistrain2,2024-01-21_22h46.36.746,VisTraining2,2021.2.3,Win32,59.17159763,,,,,,,,,2,"[1,1,2,3,1,2,2,1]",0.54,3,7,3,black,,,
,,,,,,,,,,,,,,,11,0,11,0,1,train57_vistrain2,2024-01-21_22h46.36.746,VisTraining2,2021.2.3,Win32,59.17159763,,,,,,,,,3,"[1,1,2,3,1,2,2,1]",0.81,3,7,3,black,,,
,,,,,,,,,,,,,,,12,0,12,0,1,train57_vistrain2,2024-01-21_22h46.36.746,VisTraining2,2021.2.3,Win32,59.17159763,,,,,,,,,1,"[1,1,2,3,1,2,2,1]",0.27,3,7,3,black,,,
,,,,,,,,,,,,,,,13,0,13,0,1,train57_vistrain2,2024-01-21_22h46.36.746,VisTraining2,2021.2.3,Win32,59.17159763,,,,,,,,,2,"[1,1,2,3,1,2,2,1]",0.54,3,7,3,black,,,
,,,,,,,,,,,,,,,14,0,14,0,1,train57_vistrain2,2024-01-21_22h46.36.746,VisTraining2,2021.2.3,Win32,59.17159763,,,,,,,,,2,"[1,1,2,3,1,2,2,1]",0.54,3,7,3,black,,,
,,,,,,,,,,,,,,,15,0,15,0,1,train57_vistrain2,2024-01-21_22h46.36.746,VisTraining2,2021.2.3,Win32,59.17159763,,,,,,,,,1,"[1,1,2,3,1,2,2,1]",0.27,3,7,3,black,,,
,,,,,,,,,,,,,,,16,0,16,0,1,train57_vistrain2,2024-01-21_22h46.36.746,VisTraining2,2021.2.3,Win32,59.17159763,,,,,,,,,1,"[1,1,2,1,3,2,2,1]",0.27,3,7,3,black,,,
,,,,,,,,,,,,,,,17,0,17,0,1,train57_vistrain2,2024-01-21_22h46.36.746,VisTraining2,2021.2.3,Win32,59.17159763,,,,,,,,,1,"[1,1,2,1,3,2,2,1]",0.27,3,7,3,black,,,
,,,,,,,,,,,,,,,18,0,18,0,1,train57_vistrain2,2024-01-21_22h46.36.746,VisTraining2,2021.2.3,Win32,59.17159763,,,,,,,,,2,"[1,1,2,1,3,2,2,1]",0.54,3,7,3,black,,,
,,,,,,,,,,,,,,,19,0,19,0,1,train57_vistrain2,2024-01-21_22h46.36.746,VisTraining2,2021.2.3,Win32,59.17159763,,,,,,,,,1,"[1,1,2,1,3,2,2,1]",0.27,3,7,3,black,,,
,,,,,,,,,,,,,,,20,0,20,0,1,train57_vistrain2,2024-01-21_22h46.36.746,VisTraining2,2021.2.3,Win32,59.17159763,,,,,,,,,3,"[1,1,2,1,3,2,2,1]",0.81,3,7,3,black,,,
,,,,,,,,,,,,,,,21,0,21,0,1,train57_vistrain2,2024-01-21_22h46.36.746,VisTraining2,2021.2.3,Win32,59.17159763,,,,,,,,,2,"[1,1,2,1,3,2,2,1]",0.54,3,7,3,black,,,
,,,,,,,,,,,,,,,22,0,22,0,1,train57_vistrain2,2024-01-21_22h46.36.746,VisTraining2,2021.2.3,Win32,59.17159763,,,,,,,,,2,"[1,1,2,1,3,2,2,1]",0.54,3,7,3,black,,,
,,,,,,,,,,,,,,,23,0,23,0,1,train57_vistrain2,2024-01-21_22h46.36.746,VisTraining2,2021.2.3,Win32,59.17159763,,,,,,,,,1,"[1,1,2,1,3,2,2,1]",0.27,3,7,3,black,,,
,,,,,,,,,,,,,,,,,,,,train57_vistrain2,2024-01-21_22h46.36.746,VisTraining2,2021.2.3,Win32,59.17159763,,,3,22,0,22,0,1,,,,,,,,0.8875,,
,,,,,,,,,,,,,,,0,0,0,0,1,train57_vistrain2,2024-01-21_22h46.36.746,VisTraining2,2021.2.3,Win32,59.17159763,,,,,,,,,4,"[4,2,2,1,1,2,1]",1,2,6,3,green,,,
,,,,,,,,,,,,,,,1,0,1,0,1,train57_vistrain2,2024-01-21_22h46.36.746,VisTraining2,2021.2.3,Win32,59.17159763,,,,,,,,,2,"[4,2,2,1,1,2,1]",0.5,2,6,3,green,,,
,,,,,,,,,,,,,,,2,0,2,0,1,train57_vistrain2,2024-01-21_22h46.36.746,VisTraining2,2021.2.3,Win32,59.17159763,,,,,,,,,2,"[4,2,2,1,1,2,1]",0.5,2,6,3,green,,,
,,,,,,,,,,,,,,,3,0,3,0,1,train57_vistrain2,2024-01-21_22h46.36.746,VisTraining2,2021.2.3,Win32,59.17159763,,,,,,,,,1,"[4,2,2,1,1,2,1]",0.25,2,6,3,green,,,
,,,,,,,,,,,,,,,4,0,4,0,1,train57_vistrain2,2024-01-21_22h46.36.746,VisTraining2,2021.2.3,Win32,59.17159763,,,,,,,,,1,"[4,2,2,1,1,2,1]",0.25,2,6,3,green,,,
,,,,,,,,,,,,,,,5,0,5,0,1,train57_vistrain2,2024-01-21_22h46.36.746,VisTraining2,2021.2.3,Win32,59.17159763,,,,,,,,,2,"[4,2,2,1,1,2,1]",0.5,2,6,3,green,,,
,,,,,,,,,,,,,,,6,0,6,0,1,train57_vistrain2,2024-01-21_22h46.36.746,VisTraining2,2021.2.3,Win32,59.17159763,,,,,,,,,1,"[4,2,2,1,1,2,1]",0.25,2,6,3,green,,,
,,,,,,,,,,,,,,,7,0,7,0,1,train57_vistrain2,2024-01-21_22h46.36.746,VisTraining2,2021.2.3,Win32,59.17159763,,,,,,,,,4,"[4,2,2,1,1,2,1]",1,2,6,3,green,,,
,,,,,,,,,,,,,,,8,0,8,0,1,train57_vistrain2,2024-01-21_22h46.36.746,VisTraining2,2021.2.3,Win32,59.17159763,,,,,,,,,2,"[4,2,2,1,1,2,1]",0.5,2,6,3,green,,,
,,,,,,,,,,,,,,,9,0,9,0,1,train57_vistrain2,2024-01-21_22h46.36.746,VisTraining2,2021.2.3,Win32,59.17159763,,,,,,,,,2,"[4,2,2,1,1,2,1]",0.5,2,6,3,green,,,
,,,,,,,,,,,,,,,10,0,10,0,1,train57_vistrain2,2024-01-21_22h46.36.746,VisTraining2,2021.2.3,Win32,59.17159763,,,,,,,,,1,"[4,2,2,1,1,2,1]",0.25,2,6,3,green,,,
,,,,,,,,,,,,,,,11,0,11,0,1,train57_vistrain2,2024-01-21_22h46.36.746,VisTraining2,2021.2.3,Win32,59.17159763,,,,,,,,,1,"[4,2,2,1,1,2,1]",0.25,2,6,3,green,,,
,,,,,,,,,,,,,,,12,0,12,0,1,train57_vistrain2,2024-01-21_22h46.36.746,VisTraining2,2021.2.3,Win32,59.17159763,,,,,,,,,2,"[4,2,2,1,1,2,1]",0.5,2,6,3,green,,,
,,,,,,,,,,,,,,,13,0,13,0,1,train57_vistrain2,2024-01-21_22h46.36.746,VisTraining2,2021.2.3,Win32,59.17159763,,,,,,,,,1,"[4,2,2,1,1,2,1]",0.25,2,6,3,green,,,
,,,,,,,,,,,,,,,14,0,14,0,1,train57_vistrain2,2024-01-21_22h46.36.746,VisTraining2,2021.2.3,Win32,59.17159763,,,,,,,,,4,"[4,2,2,2,1,1,1]",1,2,6,3,green,,,
,,,,,,,,,,,,,,,15,0,15,0,1,train57_vistrain2,2024-01-21_22h46.36.746,VisTraining2,2021.2.3,Win32,59.17159763,,,,,,,,,2,"[4,2,2,2,1,1,1]",0.5,2,6,3,green,,,
,,,,,,,,,,,,,,,16,0,16,0,1,train57_vistrain2,2024-01-21_22h46.36.746,VisTraining2,2021.2.3,Win32,59.17159763,,,,,,,,,2,"[4,2,2,2,1,1,1]",0.5,2,6,3,green,,,
,,,,,,,,,,,,,,,17,0,17,0,1,train57_vistrain2,2024-01-21_22h46.36.746,VisTraining2,2021.2.3,Win32,59.17159763,,,,,,,,,2,"[4,2,2,2,1,1,1]",0.5,2,6,3,green,,,
,,,,,,,,,,,,,,,18,0,18,0,1,train57_vistrain2,2024-01-21_22h46.36.746,VisTraining2,2021.2.3,Win32,59.17159763,,,,,,,,,1,"[4,2,2,2,1,1,1]",0.25,2,6,3,green,,,
,,,,,,,,,,,,,,,19,0,19,0,1,train57_vistrain2,2024-01-21_22h46.36.746,VisTraining2,2021.2.3,Win32,59.17159763,,,,,,,,,1,"[4,2,2,2,1,1,1]",0.25,2,6,3,green,,,
,,,,,,,,,,,,,,,20,0,20,0,1,train57_vistrain2,2024-01-21_22h46.36.746,VisTraining2,2021.2.3,Win32,59.17159763,,,,,,,,,1,"[4,2,2,2,1,1,1]",0.25,2,6,3,green,,,
,,,,,,,,,,,,,,,,,,,,train57_vistrain2,2024-01-21_22h46.36.746,VisTraining2,2021.2.3,Win32,59.17159763,,,g,23,0,23,0,1,,,,,,,,1.6144,,
,,,,,,,,,,,,,,,0,0,0,0,1,train57_vistrain2,2024-01-21_22h46.36.746,VisTraining2,2021.2.3,Win32,59.17159763,,,,,,,,,2,"[2,1,1,4,1,3,1]",0.54,3,6,2,black,,,
,,,,,,,,,,,,,,,1,0,1,0,1,train57_vistrain2,2024-01-21_22h46.36.746,VisTraining2,2021.2.3,Win32,59.17159763,,,,,,,,,1,"[2,1,1,4,1,3,1]",0.27,3,6,2,black,,,
,,,,,,,,,,,,,,,2,0,2,0,1,train57_vistrain2,2024-01-21_22h46.36.746,VisTraining2,2021.2.3,Win32,59.17159763,,,,,,,,,1,"[2,1,1,4,1,3,1]",0.27,3,6,2,black,,,
,,,,,,,,,,,,,,,3,0,3,0,1,train57_vistrain2,2024-01-21_22h46.36.746,VisTraining2,2021.2.3,Win32,59.17159763,,,,,,,,,4,"[2,1,1,4,1,3,1]",1.08,3,6,2,black,,,
,,,,,,,,,,,,,,,4,0,4,0,1,train57_vistrain2,2024-01-21_22h46.36.746,VisTraining2,2021.2.3,Win32,59.17159763,,,,,,,,,1,"[2,1,1,4,1,3,1]",0.27,3,6,2,black,,,
,,,,,,,,,,,,,,,5,0,5,0,1,train57_vistrain2,2024-01-21_22h46.36.746,VisTraining2,2021.2.3,Win32,59.17159763,,,,,,,,,3,"[2,1,1,4,1,3,1]",0.81,3,6,2,black,,,
,,,,,,,,,,,,,,,6,0,6,0,1,train57_vistrain2,2024-01-21_22h46.36.746,VisTraining2,2021.2.3,Win32,59.17159763,,,,,,,,,1,"[2,1,1,4,1,3,1]",0.27,3,6,2,black,,,
,,,,,,,,,,,,,,,7,0,7,0,1,train57_vistrain2,2024-01-21_22h46.36.746,VisTraining2,2021.2.3,Win32,59.17159763,,,,,,,,,2,"[2,1,1,4,3,1,1]",0.54,3,6,2,black,,,
,,,,,,,,,,,,,,,8,0,8,0,1,train57_vistrain2,2024-01-21_22h46.36.746,VisTraining2,2021.2.3,Win32,59.17159763,,,,,,,,,1,"[2,1,1,4,3,1,1]",0.27,3,6,2,black,,,
,,,,,,,,,,,,,,,9,0,9,0,1,train57_vistrain2,2024-01-21_22h46.36.746,VisTraining2,2021.2.3,Win32,59.17159763,,,,,,,,,1,"[2,1,1,4,3,1,1]",0.27,3,6,2,black,,,
,,,,,,,,,,,,,,,10,0,10,0,1,train57_vistrain2,2024-01-21_22h46.36.746,VisTraining2,2021.2.3,Win32,59.17159763,,,,,,,,,4,"[2,1,1,4,3,1,1]",1.08,3,6,2,black,,,
,,,,,,,,,,,,,,,11,0,11,0,1,train57_vistrain2,2024-01-21_22h46.36.746,VisTraining2,2021.2.3,Win32,59.17159763,,,,,,,,,3,"[2,1,1,4,3,1,1]",0.81,3,6,2,black,,,
,,,,,,,,,,,,,,,12,0,12,0,1,train57_vistrain2,2024-01-21_22h46.36.746,VisTraining2,2021.2.3,Win32,59.17159763,,,,,,,,,1,"[2,1,1,4,3,1,1]",0.27,3,6,2,black,,,
,,,,,,,,,,,,,,,13,0,13,0,1,train57_vistrain2,2024-01-21_22h46.36.746,VisTraining2,2021.2.3,Win32,59.17159763,,,,,,,,,1,"[2,1,1,4,3,1,1]",0.27,3,6,2,black,,,
,,,,,,,,,,,,,,,14,0,14,0,1,train57_vistrain2,2024-01-21_22h46.36.746,VisTraining2,2021.2.3,Win32,59.17159763,,,,,,,,,2,"[2,1,1,4,1,3,1]",0.54,3,6,2,black,,,
,,,,,,,,,,,,,,,15,0,15,0,1,train57_vistrain2,2024-01-21_22h46.36.746,VisTraining2,2021.2.3,Win32,59.17159763,,,,,,,,,1,"[2,1,1,4,1,3,1]",0.27,3,6,2,black,,,
,,,,,,,,,,,,,,,16,0,16,0,1,train57_vistrain2,2024-01-21_22h46.36.746,VisTraining2,2021.2.3,Win32,59.17159763,,,,,,,,,1,"[2,1,1,4,1,3,1]",0.27,3,6,2,black,,,
,,,,,,,,,,,,,,,17,0,17,0,1,train57_vistrain2,2024-01-21_22h46.36.746,VisTraining2,2021.2.3,Win32,59.17159763,,,,,,,,,4,"[2,1,1,4,1,3,1]",1.08,3,6,2,black,,,
,,,,,,,,,,,,,,,18,0,18,0,1,train57_vistrain2,2024-01-21_22h46.36.746,VisTraining2,2021.2.3,Win32,59.17159763,,,,,,,,,1,"[2,1,1,4,1,3,1]",0.27,3,6,2,black,,,
,,,,,,,,,,,,,,,19,0,19,0,1,train57_vistrain2,2024-01-21_22h46.36.746,VisTraining2,2021.2.3,Win32,59.17159763,,,,,,,,,3,"[2,1,1,4,1,3,1]",0.81,3,6,2,black,,,
,,,,,,,,,,,,,,,20,0,20,0,1,train57_vistrain2,2024-01-21_22h46.36.746,VisTraining2,2021.2.3,Win32,59.17159763,,,,,,,,,1,"[2,1,1,4,1,3,1]",0.27,3,6,2,black,,,
,,,,,,,,,,,,,,,,,,,,train57_vistrain2,2024-01-21_22h46.36.746,VisTraining2,2021.2.3,Win32,59.17159763,,,3,24,0,24,0,1,,,,,,,,0.911,,
,,,,,,,,,,,,,,,0,0,0,0,1,train57_vistrain2,2024-01-21_22h46.36.746,VisTraining2,2021.2.3,Win32,59.17159763,,,,,,,,,4,"[4,2,2,2,1,1,1]",1,2,6,1,black,,,
,,,,,,,,,,,,,,,1,0,1,0,1,train57_vistrain2,2024-01-21_22h46.36.746,VisTraining2,2021.2.3,Win32,59.17159763,,,,,,,,,2,"[4,2,2,2,1,1,1]",0.5,2,6,1,black,,,
,,,,,,,,,,,,,,,2,0,2,0,1,train57_vistrain2,2024-01-21_22h46.36.746,VisTraining2,2021.2.3,Win32,59.17159763,,,,,,,,,2,"[4,2,2,2,1,1,1]",0.5,2,6,1,black,,,
,,,,,,,,,,,,,,,3,0,3,0,1,train57_vistrain2,2024-01-21_22h46.36.746,VisTraining2,2021.2.3,Win32,59.17159763,,,,,,,,,2,"[4,2,2,2,1,1,1]",0.5,2,6,1,black,,,
,,,,,,,,,,,,,,,4,0,4,0,1,train57_vistrain2,2024-01-21_22h46.36.746,VisTraining2,2021.2.3,Win32,59.17159763,,,,,,,,,1,"[4,2,2,2,1,1,1]",0.25,2,6,1,black,,,
,,,,,,,,,,,,,,,5,0,5,0,1,train57_vistrain2,2024-01-21_22h46.36.746,VisTraining2,2021.2.3,Win32,59.17159763,,,,,,,,,1,"[4,2,2,2,1,1,1]",0.25,2,6,1,black,,,
,,,,,,,,,,,,,,,6,0,6,0,1,train57_vistrain2,2024-01-21_22h46.36.746,VisTraining2,2021.2.3,Win32,59.17159763,,,,,,,,,1,"[4,2,2,2,1,1,1]",0.25,2,6,1,black,,,
,,,,,,,,,,,,,,,7,0,7,0,1,train57_vistrain2,2024-01-21_22h46.36.746,VisTraining2,2021.2.3,Win32,59.17159763,,,,,,,,,4,"[4,2,2,1,1,2,1]",1,2,6,1,black,,,
,,,,,,,,,,,,,,,8,0,8,0,1,train57_vistrain2,2024-01-21_22h46.36.746,VisTraining2,2021.2.3,Win32,59.17159763,,,,,,,,,2,"[4,2,2,1,1,2,1]",0.5,2,6,1,black,,,
,,,,,,,,,,,,,,,9,0,9,0,1,train57_vistrain2,2024-01-21_22h46.36.746,VisTraining2,2021.2.3,Win32,59.17159763,,,,,,,,,2,"[4,2,2,1,1,2,1]",0.5,2,6,1,black,,,
,,,,,,,,,,,,,,,10,0,10,0,1,train57_vistrain2,2024-01-21_22h46.36.746,VisTraining2,2021.2.3,Win32,59.17159763,,,,,,,,,1,"[4,2,2,1,1,2,1]",0.25,2,6,1,black,,,
,,,,,,,,,,,,,,,11,0,11,0,1,train57_vistrain2,2024-01-21_22h46.36.746,VisTraining2,2021.2.3,Win32,59.17159763,,,,,,,,,1,"[4,2,2,1,1,2,1]",0.25,2,6,1,black,,,
,,,,,,,,,,,,,,,12,0,12,0,1,train57_vistrain2,2024-01-21_22h46.36.746,VisTraining2,2021.2.3,Win32,59.17159763,,,,,,,,,2,"[4,2,2,1,1,2,1]",0.5,2,6,1,black,,,
,,,,,,,,,,,,,,,13,0,13,0,1,train57_vistrain2,2024-01-21_22h46.36.746,VisTraining2,2021.2.3,Win32,59.17159763,,,,,,,,,1,"[4,2,2,1,1,2,1]",0.25,2,6,1,black,,,
,,,,,,,,,,,,,,,14,0,14,0,1,train57_vistrain2,2024-01-21_22h46.36.746,VisTraining2,2021.2.3,Win32,59.17159763,,,,,,,,,4,"[4,2,2,1,1,2,1]",1,2,6,1,black,,,
,,,,,,,,,,,,,,,15,0,15,0,1,train57_vistrain2,2024-01-21_22h46.36.746,VisTraining2,2021.2.3,Win32,59.17159763,,,,,,,,,2,"[4,2,2,1,1,2,1]",0.5,2,6,1,black,,,
,,,,,,,,,,,,,,,16,0,16,0,1,train57_vistrain2,2024-01-21_22h46.36.746,VisTraining2,2021.2.3,Win32,59.17159763,,,,,,,,,2,"[4,2,2,1,1,2,1]",0.5,2,6,1,black,,,
,,,,,,,,,,,,,,,17,0,17,0,1,train57_vistrain2,2024-01-21_22h46.36.746,VisTraining2,2021.2.3,Win32,59.17159763,,,,,,,,,1,"[4,2,2,1,1,2,1]",0.25,2,6,1,black,,,
,,,,,,,,,,,,,,,18,0,18,0,1,train57_vistrain2,2024-01-21_22h46.36.746,VisTraining2,2021.2.3,Win32,59.17159763,,,,,,,,,1,"[4,2,2,1,1,2,1]",0.25,2,6,1,black,,,
,,,,,,,,,,,,,,,19,0,19,0,1,train57_vistrain2,2024-01-21_22h46.36.746,VisTraining2,2021.2.3,Win32,59.17159763,,,,,,,,,2,"[4,2,2,1,1,2,1]",0.5,2,6,1,black,,,
,,,,,,,,,,,,,,,20,0,20,0,1,train57_vistrain2,2024-01-21_22h46.36.746,VisTraining2,2021.2.3,Win32,59.17159763,,,,,,,,,1,"[4,2,2,1,1,2,1]",0.25,2,6,1,black,,,
,,,,,,,,,,,,,,,,,,,,train57_vistrain2,2024-01-21_22h46.36.746,VisTraining2,2021.2.3,Win32,59.17159763,,,1,25,0,25,0,1,,,,,,,,1.0231,,
,,,,,,,,,,,,,,,0,0,0,0,1,train57_vistrain2,2024-01-21_22h46.36.746,VisTraining2,2021.2.3,Win32,59.17159763,,,,,,,,,3,"[3,1,2,1,1,1,3,1]",0.75,2,7,3,black,,,
,,,,,,,,,,,,,,,1,0,1,0,1,train57_vistrain2,2024-01-21_22h46.36.746,VisTraining2,2021.2.3,Win32,59.17159763,,,,,,,,,1,"[3,1,2,1,1,1,3,1]",0.25,2,7,3,black,,,
,,,,,,,,,,,,,,,2,0,2,0,1,train57_vistrain2,2024-01-21_22h46.36.746,VisTraining2,2021.2.3,Win32,59.17159763,,,,,,,,,2,"[3,1,2,1,1,1,3,1]",0.5,2,7,3,black,,,
,,,,,,,,,,,,,,,3,0,3,0,1,train57_vistrain2,2024-01-21_22h46.36.746,VisTraining2,2021.2.3,Win32,59.17159763,,,,,,,,,1,"[3,1,2,1,1,1,3,1]",0.25,2,7,3,black,,,
,,,,,,,,,,,,,,,4,0,4,0,1,train57_vistrain2,2024-01-21_22h46.36.746,VisTraining2,2021.2.3,Win32,59.17159763,,,,,,,,,1,"[3,1,2,1,1,1,3,1]",0.25,2,7,3,black,,,
,,,,,,,,,,,,,,,5,0,5,0,1,train57_vistrain2,2024-01-21_22h46.36.746,VisTraining2,2021.2.3,Win32,59.17159763,,,,,,,,,1,"[3,1,2,1,1,1,3,1]",0.25,2,7,3,black,,,
,,,,,,,,,,,,,,,6,0,6,0,1,train57_vistrain2,2024-01-21_22h46.36.746,VisTraining2,2021.2.3,Win32,59.17159763,,,,,,,,,3,"[3,1,2,1,1,1,3,1]",0.75,2,7,3,black,,,
,,,,,,,,,,,,,,,7,0,7,0,1,train57_vistrain2,2024-01-21_22h46.36.746,VisTraining2,2021.2.3,Win32,59.17159763,,,,,,,,,1,"[3,1,2,1,1,1,3,1]",0.25,2,7,3,black,,,
,,,,,,,,,,,,,,,8,0,8,0,1,train57_vistrain2,2024-01-21_22h46.36.746,VisTraining2,2021.2.3,Win32,59.17159763,,,,,,,,,3,"[3,1,2,1,1,1,3,1]",0.75,2,7,3,black,,,
,,,,,,,,,,,,,,,9,0,9,0,1,train57_vistrain2,2024-01-21_22h46.36.746,VisTraining2,2021.2.3,Win32,59.17159763,,,,,,,,,1,"[3,1,2,1,1,1,3,1]",0.25,2,7,3,black,,,
,,,,,,,,,,,,,,,10,0,10,0,1,train57_vistrain2,2024-01-21_22h46.36.746,VisTraining2,2021.2.3,Win32,59.17159763,,,,,,,,,2,"[3,1,2,1,1,1,3,1]",0.5,2,7,3,black,,,
,,,,,,,,,,,,,,,11,0,11,0,1,train57_vistrain2,2024-01-21_22h46.36.746,VisTraining2,2021.2.3,Win32,59.17159763,,,,,,,,,1,"[3,1,2,1,1,1,3,1]",0.25,2,7,3,black,,,
,,,,,,,,,,,,,,,12,0,12,0,1,train57_vistrain2,2024-01-21_22h46.36.746,VisTraining2,2021.2.3,Win32,59.17159763,,,,,,,,,1,"[3,1,2,1,1,1,3,1]",0.25,2,7,3,black,,,
,,,,,,,,,,,,,,,13,0,13,0,1,train57_vistrain2,2024-01-21_22h46.36.746,VisTraining2,2021.2.3,Win32,59.17159763,,,,,,,,,1,"[3,1,2,1,1,1,3,1]",0.25,2,7,3,black,,,
,,,,,,,,,,,,,,,14,0,14,0,1,train57_vistrain2,2024-01-21_22h46.36.746,VisTraining2,2021.2.3,Win32,59.17159763,,,,,,,,,3,"[3,1,2,1,1,1,3,1]",0.75,2,7,3,black,,,
,,,,,,,,,,,,,,,15,0,15,0,1,train57_vistrain2,2024-01-21_22h46.36.746,VisTraining2,2021.2.3,Win32,59.17159763,,,,,,,,,1,"[3,1,2,1,1,1,3,1]",0.25,2,7,3,black,,,
,,,,,,,,,,,,,,,16,0,16,0,1,train57_vistrain2,2024-01-21_22h46.36.746,VisTraining2,2021.2.3,Win32,59.17159763,,,,,,,,,3,"[3,1,2,1,1,3,1,1]",0.75,2,7,3,black,,,
,,,,,,,,,,,,,,,17,0,17,0,1,train57_vistrain2,2024-01-21_22h46.36.746,VisTraining2,2021.2.3,Win32,59.17159763,,,,,,,,,1,"[3,1,2,1,1,3,1,1]",0.25,2,7,3,black,,,
,,,,,,,,,,,,,,,18,0,18,0,1,train57_vistrain2,2024-01-21_22h46.36.746,VisTraining2,2021.2.3,Win32,59.17159763,,,,,,,,,2,"[3,1,2,1,1,3,1,1]",0.5,2,7,3,black,,,
,,,,,,,,,,,,,,,19,0,19,0,1,train57_vistrain2,2024-01-21_22h46.36.746,VisTraining2,2021.2.3,Win32,59.17159763,,,,,,,,,1,"[3,1,2,1,1,3,1,1]",0.25,2,7,3,black,,,
,,,,,,,,,,,,,,,20,0,20,0,1,train57_vistrain2,2024-01-21_22h46.36.746,VisTraining2,2021.2.3,Win32,59.17159763,,,,,,,,,1,"[3,1,2,1,1,3,1,1]",0.25,2,7,3,black,,,
,,,,,,,,,,,,,,,21,0,21,0,1,train57_vistrain2,2024-01-21_22h46.36.746,VisTraining2,2021.2.3,Win32,59.17159763,,,,,,,,,3,"[3,1,2,1,1,3,1,1]",0.75,2,7,3,black,,,
,,,,,,,,,,,,,,,22,0,22,0,1,train57_vistrain2,2024-01-21_22h46.36.746,VisTraining2,2021.2.3,Win32,59.17159763,,,,,,,,,1,"[3,1,2,1,1,3,1,1]",0.25,2,7,3,black,,,
,,,,,,,,,,,,,,,23,0,23,0,1,train57_vistrain2,2024-01-21_22h46.36.746,VisTraining2,2021.2.3,Win32,59.17159763,,,,,,,,,1,"[3,1,2,1,1,3,1,1]",0.25,2,7,3,black,,,
,,,,,,,,,,,,,,,,,,,,train57_vistrain2,2024-01-21_22h46.36.746,VisTraining2,2021.2.3,Win32,59.17159763,,,2,26,0,26,0,1,,,,,,,,0.8177,,
,,,,,,,,,,,,,,,0,0,0,0,1,train57_vistrain2,2024-01-21_22h46.36.746,VisTraining2,2021.2.3,Win32,59.17159763,,,,,,,,,3,"[3,1,2,1,1,3,1,1]",0.69,1,7,1,black,,,
,,,,,,,,,,,,,,,1,0,1,0,1,train57_vistrain2,2024-01-21_22h46.36.746,VisTraining2,2021.2.3,Win32,59.17159763,,,,,,,,,1,"[3,1,2,1,1,3,1,1]",0.23,1,7,1,black,,,
,,,,,,,,,,,,,,,2,0,2,0,1,train57_vistrain2,2024-01-21_22h46.36.746,VisTraining2,2021.2.3,Win32,59.17159763,,,,,,,,,2,"[3,1,2,1,1,3,1,1]",0.46,1,7,1,black,,,
,,,,,,,,,,,,,,,3,0,3,0,1,train57_vistrain2,2024-01-21_22h46.36.746,VisTraining2,2021.2.3,Win32,59.17159763,,,,,,,,,1,"[3,1,2,1,1,3,1,1]",0.23,1,7,1,black,,,
,,,,,,,,,,,,,,,4,0,4,0,1,train57_vistrain2,2024-01-21_22h46.36.746,VisTraining2,2021.2.3,Win32,59.17159763,,,,,,,,,1,"[3,1,2,1,1,3,1,1]",0.23,1,7,1,black,,,
,,,,,,,,,,,,,,,5,0,5,0,1,train57_vistrain2,2024-01-21_22h46.36.746,VisTraining2,2021.2.3,Win32,59.17159763,,,,,,,,,3,"[3,1,2,1,1,3,1,1]",0.69,1,7,1,black,,,
,,,,,,,,,,,,,,,6,0,6,0,1,train57_vistrain2,2024-01-21_22h46.36.746,VisTraining2,2021.2.3,Win32,59.17159763,,,,,,,,,1,"[3,1,2,1,1,3,1,1]",0.23,1,7,1,black,,,
,,,,,,,,,,,,,,,7,0,7,0,1,train57_vistrain2,2024-01-21_22h46.36.746,VisTraining2,2021.2.3,Win32,59.17159763,,,,,,,,,1,"[3,1,2,1,1,3,1,1]",0.23,1,7,1,black,,,
,,,,,,,,,,,,,,,8,0,8,0,1,train57_vistrain2,2024-01-21_22h46.36.746,VisTraining2,2021.2.3,Win32,59.17159763,,,,,,,,,3,"[3,1,2,1,1,1,3,1]",0.69,1,7,1,black,,,
,,,,,,,,,,,,,,,9,0,9,0,1,train57_vistrain2,2024-01-21_22h46.36.746,VisTraining2,2021.2.3,Win32,59.17159763,,,,,,,,,1,"[3,1,2,1,1,1,3,1]",0.23,1,7,1,black,,,
,,,,,,,,,,,,,,,10,0,10,0,1,train57_vistrain2,2024-01-21_22h46.36.746,VisTraining2,2021.2.3,Win32,59.17159763,,,,,,,,,2,"[3,1,2,1,1,1,3,1]",0.46,1,7,1,black,,,
,,,,,,,,,,,,,,,11,0,11,0,1,train57_vistrain2,2024-01-21_22h46.36.746,VisTraining2,2021.2.3,Win32,59.17159763,,,,,,,,,1,"[3,1,2,1,1,1,3,1]",0.23,1,7,1,black,,,
,,,,,,,,,,,,,,,12,0,12,0,1,train57_vistrain2,2024-01-21_22h46.36.746,VisTraining2,2021.2.3,Win32,59.17159763,,,,,,,,,1,"[3,1,2,1,1,1,3,1]",0.23,1,7,1,black,,,
,,,,,,,,,,,,,,,13,0,13,0,1,train57_vistrain2,2024-01-21_22h46.36.746,VisTraining2,2021.2.3,Win32,59.17159763,,,,,,,,,1,"[3,1,2,1,1,1,3,1]",0.23,1,7,1,black,,,
,,,,,,,,,,,,,,,14,0,14,0,1,train57_vistrain2,2024-01-21_22h46.36.746,VisTraining2,2021.2.3,Win32,59.17159763,,,,,,,,,3,"[3,1,2,1,1,1,3,1]",0.69,1,7,1,black,,,
,,,,,,,,,,,,,,,15,0,15,0,1,train57_vistrain2,2024-01-21_22h46.36.746,VisTraining2,2021.2.3,Win32,59.17159763,,,,,,,,,1,"[3,1,2,1,1,1,3,1]",0.23,1,7,1,black,,,
,,,,,,,,,,,,,,,16,0,16,0,1,train57_vistrain2,2024-01-21_22h46.36.746,VisTraining2,2021.2.3,Win32,59.17159763,,,,,,,,,3,"[3,1,2,1,1,1,3,1]",0.69,1,7,1,black,,,
,,,,,,,,,,,,,,,17,0,17,0,1,train57_vistrain2,2024-01-21_22h46.36.746,VisTraining2,2021.2.3,Win32,59.17159763,,,,,,,,,1,"[3,1,2,1,1,1,3,1]",0.23,1,7,1,black,,,
,,,,,,,,,,,,,,,18,0,18,0,1,train57_vistrain2,2024-01-21_22h46.36.746,VisTraining2,2021.2.3,Win32,59.17159763,,,,,,,,,2,"[3,1,2,1,1,1,3,1]",0.46,1,7,1,black,,,
,,,,,,,,,,,,,,,19,0,19,0,1,train57_vistrain2,2024-01-21_22h46.36.746,VisTraining2,2021.2.3,Win32,59.17159763,,,,,,,,,1,"[3,1,2,1,1,1,3,1]",0.23,1,7,1,black,,,
,,,,,,,,,,,,,,,20,0,20,0,1,train57_vistrain2,2024-01-21_22h46.36.746,VisTraining2,2021.2.3,Win32,59.17159763,,,,,,,,,1,"[3,1,2,1,1,1,3,1]",0.23,1,7,1,black,,,
,,,,,,,,,,,,,,,21,0,21,0,1,train57_vistrain2,2024-01-21_22h46.36.746,VisTraining2,2021.2.3,Win32,59.17159763,,,,,,,,,1,"[3,1,2,1,1,1,3,1]",0.23,1,7,1,black,,,
,,,,,,,,,,,,,,,22,0,22,0,1,train57_vistrain2,2024-01-21_22h46.36.746,VisTraining2,2021.2.3,Win32,59.17159763,,,,,,,,,3,"[3,1,2,1,1,1,3,1]",0.69,1,7,1,black,,,
,,,,,,,,,,,,,,,23,0,23,0,1,train57_vistrain2,2024-01-21_22h46.36.746,VisTraining2,2021.2.3,Win32,59.17159763,,,,,,,,,1,"[3,1,2,1,1,1,3,1]",0.23,1,7,1,black,,,
,,,,,,,,,,,,,,,,,,,,train57_vistrain2,2024-01-21_22h46.36.746,VisTraining2,2021.2.3,Win32,59.17159763,,,1,27,0,27,0,1,,,,,,,,0.905,,
,,,,,,,,,,,,,,,0,0,0,0,1,train57_vistrain2,2024-01-21_22h46.36.746,VisTraining2,2021.2.3,Win32,59.17159763,,,,,,,,,1,"[1,1,2,1,1,2,4,1]",0.23,1,7,1,black,,,
,,,,,,,,,,,,,,,1,0,1,0,1,train57_vistrain2,2024-01-21_22h46.36.746,VisTraining2,2021.2.3,Win32,59.17159763,,,,,,,,,1,"[1,1,2,1,1,2,4,1]",0.23,1,7,1,black,,,
