key_resp.keys,key_resp.rt,key_resp_2.keys,key_resp_2.rt,X Scale,Y Scale,key_resp_3.keys,key_resp_3.rt,Pr_SEQvis1,Pr_NumberOfIntervals,Pr_SEQvis3,Pr_Speed,Pr_Pattern,Pr_Diff,Pr_Color,trials.thisRepN,trials.thisTrialN,trials.thisN,trials.thisIndex,trials.ran,participant,date,expName,psychopyVersion,OS,frameRate,key_resp_4.keys,key_resp_4.rt,key_resp_5.keys,trials_2.thisRepN,trials_2.thisTrialN,trials_2.thisN,trials_2.thisIndex,trials_2.ran,SEQvis1,NumberOfIntervals,SEQvis3,Speed,Pattern,Diff,Color,key_resp_5.rt,key_resp_6.keys,key_resp_6.rt
space,6.388,space,1.0457,0.0551,0.0558,space,16.6346,2,"[2,1,1,3,1,1,3,1]",0.5,2,7,2,green,0,0,0,0,1,train41_vistrain1,2023-11-30_12h39.57.738,VisTraining,2021.2.3,MacIntel,60.0024001,,,,,,,,,,,,,,,,,,
,,,,,,,,1,"[2,1,1,3,1,1,3,1]",0.25,2,7,2,green,1,0,1,0,1,train41_vistrain1,2023-11-30_12h39.57.738,VisTraining,2021.2.3,MacIntel,60.0024001,,,,,,,,,,,,,,,,,,
,,,,,,,,1,"[2,1,1,3,1,1,3,1]",0.25,2,7,2,green,2,0,2,0,1,train41_vistrain1,2023-11-30_12h39.57.738,VisTraining,2021.2.3,MacIntel,60.0024001,,,,,,,,,,,,,,,,,,
,,,,,,,,3,"[2,1,1,3,1,1,3,1]",0.75,2,7,2,green,3,0,3,0,1,train41_vistrain1,2023-11-30_12h39.57.738,VisTraining,2021.2.3,MacIntel,60.0024001,,,,,,,,,,,,,,,,,,
,,,,,,,,1,"[2,1,1,3,1,1,3,1]",0.25,2,7,2,green,4,0,4,0,1,train41_vistrain1,2023-11-30_12h39.57.738,VisTraining,2021.2.3,MacIntel,60.0024001,,,,,,,,,,,,,,,,,,
,,,,,,,,1,"[2,1,1,3,1,1,3,1]",0.25,2,7,2,green,5,0,5,0,1,train41_vistrain1,2023-11-30_12h39.57.738,VisTraining,2021.2.3,MacIntel,60.0024001,,,,,,,,,,,,,,,,,,
,,,,,,,,3,"[2,1,1,3,1,1,3,1]",0.75,2,7,2,green,6,0,6,0,1,train41_vistrain1,2023-11-30_12h39.57.738,VisTraining,2021.2.3,MacIntel,60.0024001,,,,,,,,,,,,,,,,,,
,,,,,,,,1,"[2,1,1,3,1,1,3,1]",0.25,2,7,2,green,7,0,7,0,1,train41_vistrain1,2023-11-30_12h39.57.738,VisTraining,2021.2.3,MacIntel,60.0024001,,,,,,,,,,,,,,,,,,
,,,,,,,,2,"[2,1,1,3,1,3,1,1]",0.5,2,7,2,green,8,0,8,0,1,train41_vistrain1,2023-11-30_12h39.57.738,VisTraining,2021.2.3,MacIntel,60.0024001,,,,,,,,,,,,,,,,,,
,,,,,,,,1,"[2,1,1,3,1,3,1,1]",0.25,2,7,2,green,9,0,9,0,1,train41_vistrain1,2023-11-30_12h39.57.738,VisTraining,2021.2.3,MacIntel,60.0024001,,,,,,,,,,,,,,,,,,
,,,,,,,,1,"[2,1,1,3,1,3,1,1]",0.25,2,7,2,green,10,0,10,0,1,train41_vistrain1,2023-11-30_12h39.57.738,VisTraining,2021.2.3,MacIntel,60.0024001,,,,,,,,,,,,,,,,,,
,,,,,,,,3,"[2,1,1,3,1,3,1,1]",0.75,2,7,2,green,11,0,11,0,1,train41_vistrain1,2023-11-30_12h39.57.738,VisTraining,2021.2.3,MacIntel,60.0024001,,,,,,,,,,,,,,,,,,
,,,,,,,,1,"[2,1,1,3,1,3,1,1]",0.25,2,7,2,green,12,0,12,0,1,train41_vistrain1,2023-11-30_12h39.57.738,VisTraining,2021.2.3,MacIntel,60.0024001,,,,,,,,,,,,,,,,,,
,,,,,,,,3,"[2,1,1,3,1,3,1,1]",0.75,2,7,2,green,13,0,13,0,1,train41_vistrain1,2023-11-30_12h39.57.738,VisTraining,2021.2.3,MacIntel,60.0024001,,,,,,,,,,,,,,,,,,
,,,,,,,,1,"[2,1,1,3,1,3,1,1]",0.25,2,7,2,green,14,0,14,0,1,train41_vistrain1,2023-11-30_12h39.57.738,VisTraining,2021.2.3,MacIntel,60.0024001,,,,,,,,,,,,,,,,,,
,,,,,,,,1,"[2,1,1,3,1,3,1,1]",0.25,2,7,2,green,15,0,15,0,1,train41_vistrain1,2023-11-30_12h39.57.738,VisTraining,2021.2.3,MacIntel,60.0024001,,,,,,,,,,,,,,,,,,
,,,,,,,,2,"[2,1,1,3,1,1,3,1]",0.5,2,7,2,green,16,0,16,0,1,train41_vistrain1,2023-11-30_12h39.57.738,VisTraining,2021.2.3,MacIntel,60.0024001,,,,,,,,,,,,,,,,,,
,,,,,,,,1,"[2,1,1,3,1,1,3,1]",0.25,2,7,2,green,17,0,17,0,1,train41_vistrain1,2023-11-30_12h39.57.738,VisTraining,2021.2.3,MacIntel,60.0024001,,,,,,,,,,,,,,,,,,
,,,,,,,,1,"[2,1,1,3,1,1,3,1]",0.25,2,7,2,green,18,0,18,0,1,train41_vistrain1,2023-11-30_12h39.57.738,VisTraining,2021.2.3,MacIntel,60.0024001,,,,,,,,,,,,,,,,,,
,,,,,,,,3,"[2,1,1,3,1,1,3,1]",0.75,2,7,2,green,19,0,19,0,1,train41_vistrain1,2023-11-30_12h39.57.738,VisTraining,2021.2.3,MacIntel,60.0024001,,,,,,,,,,,,,,,,,,
,,,,,,,,1,"[2,1,1,3,1,1,3,1]",0.25,2,7,2,green,20,0,20,0,1,train41_vistrain1,2023-11-30_12h39.57.738,VisTraining,2021.2.3,MacIntel,60.0024001,,,,,,,,,,,,,,,,,,
,,,,,,,,1,"[2,1,1,3,1,1,3,1]",0.25,2,7,2,green,21,0,21,0,1,train41_vistrain1,2023-11-30_12h39.57.738,VisTraining,2021.2.3,MacIntel,60.0024001,,,,,,,,,,,,,,,,,,
,,,,,,,,3,"[2,1,1,3,1,1,3,1]",0.75,2,7,2,green,22,0,22,0,1,train41_vistrain1,2023-11-30_12h39.57.738,VisTraining,2021.2.3,MacIntel,60.0024001,,,,,,,,,,,,,,,,,,
,,,,,,,,1,"[2,1,1,3,1,1,3,1]",0.25,2,7,2,green,23,0,23,0,1,train41_vistrain1,2023-11-30_12h39.57.738,VisTraining,2021.2.3,MacIntel,60.0024001,,,,,,,,,,,,,,,,,,
,,,,,,,,,,,,,,,,,,,,train41_vistrain1,2023-11-30_12h39.57.738,VisTraining,2021.2.3,MacIntel,60.0024001,g,0.9989,,0,0,0,0,1,,,,,,,,,,
,,,,,,space,1.6829,,,,,,,,0,0,0,0,1,train41_vistrain1,2023-11-30_12h39.57.738,VisTraining,2021.2.3,MacIntel,60.0024001,,,,,,,,,2,"[2,1,1,2,2,4,1]",0.54,3,6,2,black,,,
,,,,,,,,,,,,,,,1,0,1,0,1,train41_vistrain1,2023-11-30_12h39.57.738,VisTraining,2021.2.3,MacIntel,60.0024001,,,,,,,,,1,"[2,1,1,2,2,4,1]",0.27,3,6,2,black,,,
,,,,,,,,,,,,,,,2,0,2,0,1,train41_vistrain1,2023-11-30_12h39.57.738,VisTraining,2021.2.3,MacIntel,60.0024001,,,,,,,,,1,"[2,1,1,2,2,4,1]",0.27,3,6,2,black,,,
,,,,,,,,,,,,,,,3,0,3,0,1,train41_vistrain1,2023-11-30_12h39.57.738,VisTraining,2021.2.3,MacIntel,60.0024001,,,,,,,,,2,"[2,1,1,2,2,4,1]",0.54,3,6,2,black,,,
,,,,,,,,,,,,,,,4,0,4,0,1,train41_vistrain1,2023-11-30_12h39.57.738,VisTraining,2021.2.3,MacIntel,60.0024001,,,,,,,,,2,"[2,1,1,2,2,4,1]",0.54,3,6,2,black,,,
,,,,,,,,,,,,,,,5,0,5,0,1,train41_vistrain1,2023-11-30_12h39.57.738,VisTraining,2021.2.3,MacIntel,60.0024001,,,,,,,,,4,"[2,1,1,2,2,4,1]",1.08,3,6,2,black,,,
,,,,,,,,,,,,,,,6,0,6,0,1,train41_vistrain1,2023-11-30_12h39.57.738,VisTraining,2021.2.3,MacIntel,60.0024001,,,,,,,,,1,"[2,1,1,2,2,4,1]",0.27,3,6,2,black,,,
,,,,,,,,,,,,,,,7,0,7,0,1,train41_vistrain1,2023-11-30_12h39.57.738,VisTraining,2021.2.3,MacIntel,60.0024001,,,,,,,,,1,"[1,1,2,2,2,4,1]",0.27,3,6,2,black,,,
,,,,,,,,,,,,,,,8,0,8,0,1,train41_vistrain1,2023-11-30_12h39.57.738,VisTraining,2021.2.3,MacIntel,60.0024001,,,,,,,,,1,"[1,1,2,2,2,4,1]",0.27,3,6,2,black,,,
,,,,,,,,,,,,,,,9,0,9,0,1,train41_vistrain1,2023-11-30_12h39.57.738,VisTraining,2021.2.3,MacIntel,60.0024001,,,,,,,,,2,"[1,1,2,2,2,4,1]",0.54,3,6,2,black,,,
,,,,,,,,,,,,,,,10,0,10,0,1,train41_vistrain1,2023-11-30_12h39.57.738,VisTraining,2021.2.3,MacIntel,60.0024001,,,,,,,,,2,"[1,1,2,2,2,4,1]",0.54,3,6,2,black,,,
,,,,,,,,,,,,,,,11,0,11,0,1,train41_vistrain1,2023-11-30_12h39.57.738,VisTraining,2021.2.3,MacIntel,60.0024001,,,,,,,,,2,"[1,1,2,2,2,4,1]",0.54,3,6,2,black,,,
,,,,,,,,,,,,,,,12,0,12,0,1,train41_vistrain1,2023-11-30_12h39.57.738,VisTraining,2021.2.3,MacIntel,60.0024001,,,,,,,,,4,"[1,1,2,2,2,4,1]",1.08,3,6,2,black,,,
,,,,,,,,,,,,,,,13,0,13,0,1,train41_vistrain1,2023-11-30_12h39.57.738,VisTraining,2021.2.3,MacIntel,60.0024001,,,,,,,,,1,"[1,1,2,2,2,4,1]",0.27,3,6,2,black,,,
,,,,,,,,,,,,,,,14,0,14,0,1,train41_vistrain1,2023-11-30_12h39.57.738,VisTraining,2021.2.3,MacIntel,60.0024001,,,,,,,,,2,"[2,1,1,2,2,4,1]",0.54,3,6,2,black,,,
,,,,,,,,,,,,,,,15,0,15,0,1,train41_vistrain1,2023-11-30_12h39.57.738,VisTraining,2021.2.3,MacIntel,60.0024001,,,,,,,,,1,"[2,1,1,2,2,4,1]",0.27,3,6,2,black,,,
,,,,,,,,,,,,,,,16,0,16,0,1,train41_vistrain1,2023-11-30_12h39.57.738,VisTraining,2021.2.3,MacIntel,60.0024001,,,,,,,,,1,"[2,1,1,2,2,4,1]",0.27,3,6,2,black,,,
,,,,,,,,,,,,,,,17,0,17,0,1,train41_vistrain1,2023-11-30_12h39.57.738,VisTraining,2021.2.3,MacIntel,60.0024001,,,,,,,,,2,"[2,1,1,2,2,4,1]",0.54,3,6,2,black,,,
,,,,,,,,,,,,,,,18,0,18,0,1,train41_vistrain1,2023-11-30_12h39.57.738,VisTraining,2021.2.3,MacIntel,60.0024001,,,,,,,,,2,"[2,1,1,2,2,4,1]",0.54,3,6,2,black,,,
,,,,,,,,,,,,,,,19,0,19,0,1,train41_vistrain1,2023-11-30_12h39.57.738,VisTraining,2021.2.3,MacIntel,60.0024001,,,,,,,,,4,"[2,1,1,2,2,4,1]",1.08,3,6,2,black,,,
,,,,,,,,,,,,,,,20,0,20,0,1,train41_vistrain1,2023-11-30_12h39.57.738,VisTraining,2021.2.3,MacIntel,60.0024001,,,,,,,,,1,"[2,1,1,2,2,4,1]",0.27,3,6,2,black,,,
,,,,,,,,,,,,,,,,,,,,train41_vistrain1,2023-11-30_12h39.57.738,VisTraining,2021.2.3,MacIntel,60.0024001,,,2,1,0,1,0,1,,,,,,,,0.8822,,
,,,,,,,,,,,,,,,0,0,0,0,1,train41_vistrain1,2023-11-30_12h39.57.738,VisTraining,2021.2.3,MacIntel,60.0024001,,,,,,,,,4,"[4,1,3,3,1,1]",1,2,5,3,black,,,
,,,,,,,,,,,,,,,1,0,1,0,1,train41_vistrain1,2023-11-30_12h39.57.738,VisTraining,2021.2.3,MacIntel,60.0024001,,,,,,,,,1,"[4,1,3,3,1,1]",0.25,2,5,3,black,,,
,,,,,,,,,,,,,,,2,0,2,0,1,train41_vistrain1,2023-11-30_12h39.57.738,VisTraining,2021.2.3,MacIntel,60.0024001,,,,,,,,,3,"[4,1,3,3,1,1]",0.75,2,5,3,black,,,
,,,,,,,,,,,,,,,3,0,3,0,1,train41_vistrain1,2023-11-30_12h39.57.738,VisTraining,2021.2.3,MacIntel,60.0024001,,,,,,,,,3,"[4,1,3,3,1,1]",0.75,2,5,3,black,,,
,,,,,,,,,,,,,,,4,0,4,0,1,train41_vistrain1,2023-11-30_12h39.57.738,VisTraining,2021.2.3,MacIntel,60.0024001,,,,,,,,,1,"[4,1,3,3,1,1]",0.25,2,5,3,black,,,
,,,,,,,,,,,,,,,5,0,5,0,1,train41_vistrain1,2023-11-30_12h39.57.738,VisTraining,2021.2.3,MacIntel,60.0024001,,,,,,,,,1,"[4,1,3,3,1,1]",0.25,2,5,3,black,,,
,,,,,,,,,,,,,,,6,0,6,0,1,train41_vistrain1,2023-11-30_12h39.57.738,VisTraining,2021.2.3,MacIntel,60.0024001,,,,,,,,,4,"[4,1,3,3,1,1]",1,2,5,3,black,,,
,,,,,,,,,,,,,,,7,0,7,0,1,train41_vistrain1,2023-11-30_12h39.57.738,VisTraining,2021.2.3,MacIntel,60.0024001,,,,,,,,,1,"[4,1,3,3,1,1]",0.25,2,5,3,black,,,
,,,,,,,,,,,,,,,8,0,8,0,1,train41_vistrain1,2023-11-30_12h39.57.738,VisTraining,2021.2.3,MacIntel,60.0024001,,,,,,,,,3,"[4,1,3,3,1,1]",0.75,2,5,3,black,,,
,,,,,,,,,,,,,,,9,0,9,0,1,train41_vistrain1,2023-11-30_12h39.57.738,VisTraining,2021.2.3,MacIntel,60.0024001,,,,,,,,,3,"[4,1,3,3,1,1]",0.75,2,5,3,black,,,
,,,,,,,,,,,,,,,10,0,10,0,1,train41_vistrain1,2023-11-30_12h39.57.738,VisTraining,2021.2.3,MacIntel,60.0024001,,,,,,,,,1,"[4,1,3,3,1,1]",0.25,2,5,3,black,,,
,,,,,,,,,,,,,,,11,0,11,0,1,train41_vistrain1,2023-11-30_12h39.57.738,VisTraining,2021.2.3,MacIntel,60.0024001,,,,,,,,,1,"[4,1,3,3,1,1]",0.25,2,5,3,black,,,
,,,,,,,,,,,,,,,12,0,12,0,1,train41_vistrain1,2023-11-30_12h39.57.738,VisTraining,2021.2.3,MacIntel,60.0024001,,,,,,,,,4,"[4,3,1,3,1,1]",1,2,5,3,black,,,
,,,,,,,,,,,,,,,13,0,13,0,1,train41_vistrain1,2023-11-30_12h39.57.738,VisTraining,2021.2.3,MacIntel,60.0024001,,,,,,,,,3,"[4,3,1,3,1,1]",0.75,2,5,3,black,,,
,,,,,,,,,,,,,,,14,0,14,0,1,train41_vistrain1,2023-11-30_12h39.57.738,VisTraining,2021.2.3,MacIntel,60.0024001,,,,,,,,,1,"[4,3,1,3,1,1]",0.25,2,5,3,black,,,
,,,,,,,,,,,,,,,15,0,15,0,1,train41_vistrain1,2023-11-30_12h39.57.738,VisTraining,2021.2.3,MacIntel,60.0024001,,,,,,,,,3,"[4,3,1,3,1,1]",0.75,2,5,3,black,,,
,,,,,,,,,,,,,,,16,0,16,0,1,train41_vistrain1,2023-11-30_12h39.57.738,VisTraining,2021.2.3,MacIntel,60.0024001,,,,,,,,,1,"[4,3,1,3,1,1]",0.25,2,5,3,black,,,
,,,,,,,,,,,,,,,17,0,17,0,1,train41_vistrain1,2023-11-30_12h39.57.738,VisTraining,2021.2.3,MacIntel,60.0024001,,,,,,,,,1,"[4,3,1,3,1,1]",0.25,2,5,3,black,,,
,,,,,,,,,,,,,,,,,,,,train41_vistrain1,2023-11-30_12h39.57.738,VisTraining,2021.2.3,MacIntel,60.0024001,,,2,2,0,2,0,1,,,,,,,,2.4207,,
,,,,,,,,,,,,,,,0,0,0,0,1,train41_vistrain1,2023-11-30_12h39.57.738,VisTraining,2021.2.3,MacIntel,60.0024001,,,,,,,,,4,"[4,3,1,2,2,1]",1,2,5,2,black,,,
,,,,,,,,,,,,,,,1,0,1,0,1,train41_vistrain1,2023-11-30_12h39.57.738,VisTraining,2021.2.3,MacIntel,60.0024001,,,,,,,,,3,"[4,3,1,2,2,1]",0.75,2,5,2,black,,,
,,,,,,,,,,,,,,,2,0,2,0,1,train41_vistrain1,2023-11-30_12h39.57.738,VisTraining,2021.2.3,MacIntel,60.0024001,,,,,,,,,1,"[4,3,1,2,2,1]",0.25,2,5,2,black,,,
,,,,,,,,,,,,,,,3,0,3,0,1,train41_vistrain1,2023-11-30_12h39.57.738,VisTraining,2021.2.3,MacIntel,60.0024001,,,,,,,,,2,"[4,3,1,2,2,1]",0.5,2,5,2,black,,,
,,,,,,,,,,,,,,,4,0,4,0,1,train41_vistrain1,2023-11-30_12h39.57.738,VisTraining,2021.2.3,MacIntel,60.0024001,,,,,,,,,2,"[4,3,1,2,2,1]",0.5,2,5,2,black,,,
,,,,,,,,,,,,,,,5,0,5,0,1,train41_vistrain1,2023-11-30_12h39.57.738,VisTraining,2021.2.3,MacIntel,60.0024001,,,,,,,,,1,"[4,3,1,2,2,1]",0.25,2,5,2,black,,,
,,,,,,,,,,,,,,,6,0,6,0,1,train41_vistrain1,2023-11-30_12h39.57.738,VisTraining,2021.2.3,MacIntel,60.0024001,,,,,,,,,4,"[4,1,3,2,2,1]",1,2,5,2,black,,,
,,,,,,,,,,,,,,,7,0,7,0,1,train41_vistrain1,2023-11-30_12h39.57.738,VisTraining,2021.2.3,MacIntel,60.0024001,,,,,,,,,1,"[4,1,3,2,2,1]",0.25,2,5,2,black,,,
,,,,,,,,,,,,,,,8,0,8,0,1,train41_vistrain1,2023-11-30_12h39.57.738,VisTraining,2021.2.3,MacIntel,60.0024001,,,,,,,,,3,"[4,1,3,2,2,1]",0.75,2,5,2,black,,,
,,,,,,,,,,,,,,,9,0,9,0,1,train41_vistrain1,2023-11-30_12h39.57.738,VisTraining,2021.2.3,MacIntel,60.0024001,,,,,,,,,2,"[4,1,3,2,2,1]",0.5,2,5,2,black,,,
,,,,,,,,,,,,,,,10,0,10,0,1,train41_vistrain1,2023-11-30_12h39.57.738,VisTraining,2021.2.3,MacIntel,60.0024001,,,,,,,,,2,"[4,1,3,2,2,1]",0.5,2,5,2,black,,,
,,,,,,,,,,,,,,,11,0,11,0,1,train41_vistrain1,2023-11-30_12h39.57.738,VisTraining,2021.2.3,MacIntel,60.0024001,,,,,,,,,1,"[4,1,3,2,2,1]",0.25,2,5,2,black,,,
,,,,,,,,,,,,,,,12,0,12,0,1,train41_vistrain1,2023-11-30_12h39.57.738,VisTraining,2021.2.3,MacIntel,60.0024001,,,,,,,,,4,"[4,3,1,2,2,1]",1,2,5,2,black,,,
,,,,,,,,,,,,,,,13,0,13,0,1,train41_vistrain1,2023-11-30_12h39.57.738,VisTraining,2021.2.3,MacIntel,60.0024001,,,,,,,,,3,"[4,3,1,2,2,1]",0.75,2,5,2,black,,,
,,,,,,,,,,,,,,,14,0,14,0,1,train41_vistrain1,2023-11-30_12h39.57.738,VisTraining,2021.2.3,MacIntel,60.0024001,,,,,,,,,1,"[4,3,1,2,2,1]",0.25,2,5,2,black,,,
,,,,,,,,,,,,,,,15,0,15,0,1,train41_vistrain1,2023-11-30_12h39.57.738,VisTraining,2021.2.3,MacIntel,60.0024001,,,,,,,,,2,"[4,3,1,2,2,1]",0.5,2,5,2,black,,,
,,,,,,,,,,,,,,,16,0,16,0,1,train41_vistrain1,2023-11-30_12h39.57.738,VisTraining,2021.2.3,MacIntel,60.0024001,,,,,,,,,2,"[4,3,1,2,2,1]",0.5,2,5,2,black,,,
,,,,,,,,,,,,,,,17,0,17,0,1,train41_vistrain1,2023-11-30_12h39.57.738,VisTraining,2021.2.3,MacIntel,60.0024001,,,,,,,,,1,"[4,3,1,2,2,1]",0.25,2,5,2,black,,,
,,,,,,,,,,,,,,,,,,,,train41_vistrain1,2023-11-30_12h39.57.738,VisTraining,2021.2.3,MacIntel,60.0024001,,,1,3,0,3,0,1,,,,,,,,0.9256,,
,,,,,,,,,,,,,,,0,0,0,0,1,train41_vistrain1,2023-11-30_12h39.57.738,VisTraining,2021.2.3,MacIntel,60.0024001,,,,,,,,,4,"[4,2,2,1,1,1,1,1]",1.08,3,7,3,black,,,
,,,,,,,,,,,,,,,1,0,1,0,1,train41_vistrain1,2023-11-30_12h39.57.738,VisTraining,2021.2.3,MacIntel,60.0024001,,,,,,,,,2,"[4,2,2,1,1,1,1,1]",0.54,3,7,3,black,,,
,,,,,,,,,,,,,,,2,0,2,0,1,train41_vistrain1,2023-11-30_12h39.57.738,VisTraining,2021.2.3,MacIntel,60.0024001,,,,,,,,,2,"[4,2,2,1,1,1,1,1]",0.54,3,7,3,black,,,
,,,,,,,,,,,,,,,3,0,3,0,1,train41_vistrain1,2023-11-30_12h39.57.738,VisTraining,2021.2.3,MacIntel,60.0024001,,,,,,,,,1,"[4,2,2,1,1,1,1,1]",0.27,3,7,3,black,,,
,,,,,,,,,,,,,,,4,0,4,0,1,train41_vistrain1,2023-11-30_12h39.57.738,VisTraining,2021.2.3,MacIntel,60.0024001,,,,,,,,,1,"[4,2,2,1,1,1,1,1]",0.27,3,7,3,black,,,
,,,,,,,,,,,,,,,5,0,5,0,1,train41_vistrain1,2023-11-30_12h39.57.738,VisTraining,2021.2.3,MacIntel,60.0024001,,,,,,,,,1,"[4,2,2,1,1,1,1,1]",0.27,3,7,3,black,,,
,,,,,,,,,,,,,,,6,0,6,0,1,train41_vistrain1,2023-11-30_12h39.57.738,VisTraining,2021.2.3,MacIntel,60.0024001,,,,,,,,,1,"[4,2,2,1,1,1,1,1]",0.27,3,7,3,black,,,
,,,,,,,,,,,,,,,7,0,7,0,1,train41_vistrain1,2023-11-30_12h39.57.738,VisTraining,2021.2.3,MacIntel,60.0024001,,,,,,,,,1,"[4,2,2,1,1,1,1,1]",0.27,3,7,3,black,,,
,,,,,,,,,,,,,,,8,0,8,0,1,train41_vistrain1,2023-11-30_12h39.57.738,VisTraining,2021.2.3,MacIntel,60.0024001,,,,,,,,,4,"[4,2,2,1,1,1,1,1]",1.08,3,7,3,black,,,
,,,,,,,,,,,,,,,9,0,9,0,1,train41_vistrain1,2023-11-30_12h39.57.738,VisTraining,2021.2.3,MacIntel,60.0024001,,,,,,,,,2,"[4,2,2,1,1,1,1,1]",0.54,3,7,3,black,,,
,,,,,,,,,,,,,,,10,0,10,0,1,train41_vistrain1,2023-11-30_12h39.57.738,VisTraining,2021.2.3,MacIntel,60.0024001,,,,,,,,,2,"[4,2,2,1,1,1,1,1]",0.54,3,7,3,black,,,
,,,,,,,,,,,,,,,11,0,11,0,1,train41_vistrain1,2023-11-30_12h39.57.738,VisTraining,2021.2.3,MacIntel,60.0024001,,,,,,,,,1,"[4,2,2,1,1,1,1,1]",0.27,3,7,3,black,,,
,,,,,,,,,,,,,,,12,0,12,0,1,train41_vistrain1,2023-11-30_12h39.57.738,VisTraining,2021.2.3,MacIntel,60.0024001,,,,,,,,,1,"[4,2,2,1,1,1,1,1]",0.27,3,7,3,black,,,
,,,,,,,,,,,,,,,13,0,13,0,1,train41_vistrain1,2023-11-30_12h39.57.738,VisTraining,2021.2.3,MacIntel,60.0024001,,,,,,,,,1,"[4,2,2,1,1,1,1,1]",0.27,3,7,3,black,,,
,,,,,,,,,,,,,,,14,0,14,0,1,train41_vistrain1,2023-11-30_12h39.57.738,VisTraining,2021.2.3,MacIntel,60.0024001,,,,,,,,,1,"[4,2,2,1,1,1,1,1]",0.27,3,7,3,black,,,
,,,,,,,,,,,,,,,15,0,15,0,1,train41_vistrain1,2023-11-30_12h39.57.738,VisTraining,2021.2.3,MacIntel,60.0024001,,,,,,,,,1,"[4,2,2,1,1,1,1,1]",0.27,3,7,3,black,,,
,,,,,,,,,,,,,,,16,0,16,0,1,train41_vistrain1,2023-11-30_12h39.57.738,VisTraining,2021.2.3,MacIntel,60.0024001,,,,,,,,,4,"[4,2,1,1,2,1,1,1]",1.08,3,7,3,black,,,
,,,,,,,,,,,,,,,17,0,17,0,1,train41_vistrain1,2023-11-30_12h39.57.738,VisTraining,2021.2.3,MacIntel,60.0024001,,,,,,,,,2,"[4,2,1,1,2,1,1,1]",0.54,3,7,3,black,,,
,,,,,,,,,,,,,,,18,0,18,0,1,train41_vistrain1,2023-11-30_12h39.57.738,VisTraining,2021.2.3,MacIntel,60.0024001,,,,,,,,,1,"[4,2,1,1,2,1,1,1]",0.27,3,7,3,black,,,
,,,,,,,,,,,,,,,19,0,19,0,1,train41_vistrain1,2023-11-30_12h39.57.738,VisTraining,2021.2.3,MacIntel,60.0024001,,,,,,,,,1,"[4,2,1,1,2,1,1,1]",0.27,3,7,3,black,,,
,,,,,,,,,,,,,,,20,0,20,0,1,train41_vistrain1,2023-11-30_12h39.57.738,VisTraining,2021.2.3,MacIntel,60.0024001,,,,,,,,,2,"[4,2,1,1,2,1,1,1]",0.54,3,7,3,black,,,
,,,,,,,,,,,,,,,21,0,21,0,1,train41_vistrain1,2023-11-30_12h39.57.738,VisTraining,2021.2.3,MacIntel,60.0024001,,,,,,,,,1,"[4,2,1,1,2,1,1,1]",0.27,3,7,3,black,,,
,,,,,,,,,,,,,,,22,0,22,0,1,train41_vistrain1,2023-11-30_12h39.57.738,VisTraining,2021.2.3,MacIntel,60.0024001,,,,,,,,,1,"[4,2,1,1,2,1,1,1]",0.27,3,7,3,black,,,
,,,,,,,,,,,,,,,23,0,23,0,1,train41_vistrain1,2023-11-30_12h39.57.738,VisTraining,2021.2.3,MacIntel,60.0024001,,,,,,,,,1,"[4,2,1,1,2,1,1,1]",0.27,3,7,3,black,,,
,,,,,,,,,,,,,,,,,,,,train41_vistrain1,2023-11-30_12h39.57.738,VisTraining,2021.2.3,MacIntel,60.0024001,,,3,4,0,4,0,1,,,,,,,,0.3537,,
,,,,,,,,,,,,,,,0,0,0,0,1,train41_vistrain1,2023-11-30_12h39.57.738,VisTraining,2021.2.3,MacIntel,60.0024001,,,,,,,,,1,"[1,1,2,1,3,4,1]",0.23,1,6,1,black,,,
,,,,,,,,,,,,,,,1,0,1,0,1,train41_vistrain1,2023-11-30_12h39.57.738,VisTraining,2021.2.3,MacIntel,60.0024001,,,,,,,,,1,"[1,1,2,1,3,4,1]",0.23,1,6,1,black,,,
,,,,,,,,,,,,,,,2,0,2,0,1,train41_vistrain1,2023-11-30_12h39.57.738,VisTraining,2021.2.3,MacIntel,60.0024001,,,,,,,,,2,"[1,1,2,1,3,4,1]",0.46,1,6,1,black,,,
,,,,,,,,,,,,,,,3,0,3,0,1,train41_vistrain1,2023-11-30_12h39.57.738,VisTraining,2021.2.3,MacIntel,60.0024001,,,,,,,,,1,"[1,1,2,1,3,4,1]",0.23,1,6,1,black,,,
,,,,,,,,,,,,,,,4,0,4,0,1,train41_vistrain1,2023-11-30_12h39.57.738,VisTraining,2021.2.3,MacIntel,60.0024001,,,,,,,,,3,"[1,1,2,1,3,4,1]",0.69,1,6,1,black,,,
,,,,,,,,,,,,,,,5,0,5,0,1,train41_vistrain1,2023-11-30_12h39.57.738,VisTraining,2021.2.3,MacIntel,60.0024001,,,,,,,,,4,"[1,1,2,1,3,4,1]",0.92,1,6,1,black,,,
,,,,,,,,,,,,,,,6,0,6,0,1,train41_vistrain1,2023-11-30_12h39.57.738,VisTraining,2021.2.3,MacIntel,60.0024001,,,,,,,,,1,"[1,1,2,1,3,4,1]",0.23,1,6,1,black,,,
,,,,,,,,,,,,,,,7,0,7,0,1,train41_vistrain1,2023-11-30_12h39.57.738,VisTraining,2021.2.3,MacIntel,60.0024001,,,,,,,,,1,"[1,1,2,3,1,4,1]",0.23,1,6,1,black,,,
,,,,,,,,,,,,,,,8,0,8,0,1,train41_vistrain1,2023-11-30_12h39.57.738,VisTraining,2021.2.3,MacIntel,60.0024001,,,,,,,,,1,"[1,1,2,3,1,4,1]",0.23,1,6,1,black,,,
,,,,,,,,,,,,,,,9,0,9,0,1,train41_vistrain1,2023-11-30_12h39.57.738,VisTraining,2021.2.3,MacIntel,60.0024001,,,,,,,,,2,"[1,1,2,3,1,4,1]",0.46,1,6,1,black,,,
,,,,,,,,,,,,,,,10,0,10,0,1,train41_vistrain1,2023-11-30_12h39.57.738,VisTraining,2021.2.3,MacIntel,60.0024001,,,,,,,,,3,"[1,1,2,3,1,4,1]",0.69,1,6,1,black,,,
,,,,,,,,,,,,,,,11,0,11,0,1,train41_vistrain1,2023-11-30_12h39.57.738,VisTraining,2021.2.3,MacIntel,60.0024001,,,,,,,,,1,"[1,1,2,3,1,4,1]",0.23,1,6,1,black,,,
,,,,,,,,,,,,,,,12,0,12,0,1,train41_vistrain1,2023-11-30_12h39.57.738,VisTraining,2021.2.3,MacIntel,60.0024001,,,,,,,,,4,"[1,1,2,3,1,4,1]",0.92,1,6,1,black,,,
,,,,,,,,,,,,,,,13,0,13,0,1,train41_vistrain1,2023-11-30_12h39.57.738,VisTraining,2021.2.3,MacIntel,60.0024001,,,,,,,,,1,"[1,1,2,3,1,4,1]",0.23,1,6,1,black,,,
,,,,,,,,,,,,,,,14,0,14,0,1,train41_vistrain1,2023-11-30_12h39.57.738,VisTraining,2021.2.3,MacIntel,60.0024001,,,,,,,,,1,"[1,1,2,3,1,4,1]",0.23,1,6,1,black,,,
,,,,,,,,,,,,,,,15,0,15,0,1,train41_vistrain1,2023-11-30_12h39.57.738,VisTraining,2021.2.3,MacIntel,60.0024001,,,,,,,,,1,"[1,1,2,3,1,4,1]",0.23,1,6,1,black,,,
,,,,,,,,,,,,,,,16,0,16,0,1,train41_vistrain1,2023-11-30_12h39.57.738,VisTraining,2021.2.3,MacIntel,60.0024001,,,,,,,,,2,"[1,1,2,3,1,4,1]",0.46,1,6,1,black,,,
,,,,,,,,,,,,,,,17,0,17,0,1,train41_vistrain1,2023-11-30_12h39.57.738,VisTraining,2021.2.3,MacIntel,60.0024001,,,,,,,,,3,"[1,1,2,3,1,4,1]",0.69,1,6,1,black,,,
,,,,,,,,,,,,,,,18,0,18,0,1,train41_vistrain1,2023-11-30_12h39.57.738,VisTraining,2021.2.3,MacIntel,60.0024001,,,,,,,,,1,"[1,1,2,3,1,4,1]",0.23,1,6,1,black,,,
,,,,,,,,,,,,,,,19,0,19,0,1,train41_vistrain1,2023-11-30_12h39.57.738,VisTraining,2021.2.3,MacIntel,60.0024001,,,,,,,,,4,"[1,1,2,3,1,4,1]",0.92,1,6,1,black,,,
,,,,,,,,,,,,,,,20,0,20,0,1,train41_vistrain1,2023-11-30_12h39.57.738,VisTraining,2021.2.3,MacIntel,60.0024001,,,,,,,,,1,"[1,1,2,3,1,4,1]",0.23,1,6,1,black,,,
,,,,,,,,,,,,,,,,,,,,train41_vistrain1,2023-11-30_12h39.57.738,VisTraining,2021.2.3,MacIntel,60.0024001,,,1,5,0,5,0,1,,,,,,,,0.8871,,
,,,,,,,,,,,,,,,0,0,0,0,1,train41_vistrain1,2023-11-30_12h39.57.738,VisTraining,2021.2.3,MacIntel,60.0024001,,,,,,,,,2,"[2,2,3,1,1,3,1]",0.46,1,6,2,black,,,
,,,,,,,,,,,,,,,1,0,1,0,1,train41_vistrain1,2023-11-30_12h39.57.738,VisTraining,2021.2.3,MacIntel,60.0024001,,,,,,,,,2,"[2,2,3,1,1,3,1]",0.46,1,6,2,black,,,
,,,,,,,,,,,,,,,2,0,2,0,1,train41_vistrain1,2023-11-30_12h39.57.738,VisTraining,2021.2.3,MacIntel,60.0024001,,,,,,,,,3,"[2,2,3,1,1,3,1]",0.69,1,6,2,black,,,
,,,,,,,,,,,,,,,3,0,3,0,1,train41_vistrain1,2023-11-30_12h39.57.738,VisTraining,2021.2.3,MacIntel,60.0024001,,,,,,,,,1,"[2,2,3,1,1,3,1]",0.23,1,6,2,black,,,
,,,,,,,,,,,,,,,4,0,4,0,1,train41_vistrain1,2023-11-30_12h39.57.738,VisTraining,2021.2.3,MacIntel,60.0024001,,,,,,,,,1,"[2,2,3,1,1,3,1]",0.23,1,6,2,black,,,
,,,,,,,,,,,,,,,5,0,5,0,1,train41_vistrain1,2023-11-30_12h39.57.738,VisTraining,2021.2.3,MacIntel,60.0024001,,,,,,,,,3,"[2,2,3,1,1,3,1]",0.69,1,6,2,black,,,
,,,,,,,,,,,,,,,6,0,6,0,1,train41_vistrain1,2023-11-30_12h39.57.738,VisTraining,2021.2.3,MacIntel,60.0024001,,,,,,,,,1,"[2,2,3,1,1,3,1]",0.23,1,6,2,black,,,
,,,,,,,,,,,,,,,7,0,7,0,1,train41_vistrain1,2023-11-30_12h39.57.738,VisTraining,2021.2.3,MacIntel,60.0024001,,,,,,,,,2,"[2,2,3,1,3,1,1]",0.46,1,6,2,black,,,
,,,,,,,,,,,,,,,8,0,8,0,1,train41_vistrain1,2023-11-30_12h39.57.738,VisTraining,2021.2.3,MacIntel,60.0024001,,,,,,,,,2,"[2,2,3,1,3,1,1]",0.46,1,6,2,black,,,
,,,,,,,,,,,,,,,9,0,9,0,1,train41_vistrain1,2023-11-30_12h39.57.738,VisTraining,2021.2.3,MacIntel,60.0024001,,,,,,,,,3,"[2,2,3,1,3,1,1]",0.69,1,6,2,black,,,
,,,,,,,,,,,,,,,10,0,10,0,1,train41_vistrain1,2023-11-30_12h39.57.738,VisTraining,2021.2.3,MacIntel,60.0024001,,,,,,,,,1,"[2,2,3,1,3,1,1]",0.23,1,6,2,black,,,
,,,,,,,,,,,,,,,11,0,11,0,1,train41_vistrain1,2023-11-30_12h39.57.738,VisTraining,2021.2.3,MacIntel,60.0024001,,,,,,,,,3,"[2,2,3,1,3,1,1]",0.69,1,6,2,black,,,
,,,,,,,,,,,,,,,12,0,12,0,1,train41_vistrain1,2023-11-30_12h39.57.738,VisTraining,2021.2.3,MacIntel,60.0024001,,,,,,,,,1,"[2,2,3,1,3,1,1]",0.23,1,6,2,black,,,
,,,,,,,,,,,,,,,13,0,13,0,1,train41_vistrain1,2023-11-30_12h39.57.738,VisTraining,2021.2.3,MacIntel,60.0024001,,,,,,,,,1,"[2,2,3,1,3,1,1]",0.23,1,6,2,black,,,
,,,,,,,,,,,,,,,14,0,14,0,1,train41_vistrain1,2023-11-30_12h39.57.738,VisTraining,2021.2.3,MacIntel,60.0024001,,,,,,,,,2,"[2,2,3,1,1,3,1]",0.46,1,6,2,black,,,
,,,,,,,,,,,,,,,15,0,15,0,1,train41_vistrain1,2023-11-30_12h39.57.738,VisTraining,2021.2.3,MacIntel,60.0024001,,,,,,,,,2,"[2,2,3,1,1,3,1]",0.46,1,6,2,black,,,
,,,,,,,,,,,,,,,16,0,16,0,1,train41_vistrain1,2023-11-30_12h39.57.738,VisTraining,2021.2.3,MacIntel,60.0024001,,,,,,,,,3,"[2,2,3,1,1,3,1]",0.69,1,6,2,black,,,
,,,,,,,,,,,,,,,17,0,17,0,1,train41_vistrain1,2023-11-30_12h39.57.738,VisTraining,2021.2.3,MacIntel,60.0024001,,,,,,,,,1,"[2,2,3,1,1,3,1]",0.23,1,6,2,black,,,
,,,,,,,,,,,,,,,18,0,18,0,1,train41_vistrain1,2023-11-30_12h39.57.738,VisTraining,2021.2.3,MacIntel,60.0024001,,,,,,,,,1,"[2,2,3,1,1,3,1]",0.23,1,6,2,black,,,
,,,,,,,,,,,,,,,19,0,19,0,1,train41_vistrain1,2023-11-30_12h39.57.738,VisTraining,2021.2.3,MacIntel,60.0024001,,,,,,,,,3,"[2,2,3,1,1,3,1]",0.69,1,6,2,black,,,
,,,,,,,,,,,,,,,20,0,20,0,1,train41_vistrain1,2023-11-30_12h39.57.738,VisTraining,2021.2.3,MacIntel,60.0024001,,,,,,,,,1,"[2,2,3,1,1,3,1]",0.23,1,6,2,black,,,
,,,,,,,,,,,,,,,,,,,,train41_vistrain1,2023-11-30_12h39.57.738,VisTraining,2021.2.3,MacIntel,60.0024001,,,3,6,0,6,0,1,,,,,,,,1.6181,,
,,,,,,,,,,,,,,,0,0,0,0,1,train41_vistrain1,2023-11-30_12h39.57.738,VisTraining,2021.2.3,MacIntel,60.0024001,,,,,,,,,4,"[4,1,1,1,1,1,3,1]",0.92,1,7,1,black,,,
,,,,,,,,,,,,,,,1,0,1,0,1,train41_vistrain1,2023-11-30_12h39.57.738,VisTraining,2021.2.3,MacIntel,60.0024001,,,,,,,,,1,"[4,1,1,1,1,1,3,1]",0.23,1,7,1,black,,,
,,,,,,,,,,,,,,,2,0,2,0,1,train41_vistrain1,2023-11-30_12h39.57.738,VisTraining,2021.2.3,MacIntel,60.0024001,,,,,,,,,1,"[4,1,1,1,1,1,3,1]",0.23,1,7,1,black,,,
,,,,,,,,,,,,,,,3,0,3,0,1,train41_vistrain1,2023-11-30_12h39.57.738,VisTraining,2021.2.3,MacIntel,60.0024001,,,,,,,,,1,"[4,1,1,1,1,1,3,1]",0.23,1,7,1,black,,,
,,,,,,,,,,,,,,,4,0,4,0,1,train41_vistrain1,2023-11-30_12h39.57.738,VisTraining,2021.2.3,MacIntel,60.0024001,,,,,,,,,1,"[4,1,1,1,1,1,3,1]",0.23,1,7,1,black,,,
,,,,,,,,,,,,,,,5,0,5,0,1,train41_vistrain1,2023-11-30_12h39.57.738,VisTraining,2021.2.3,MacIntel,60.0024001,,,,,,,,,1,"[4,1,1,1,1,1,3,1]",0.23,1,7,1,black,,,
,,,,,,,,,,,,,,,6,0,6,0,1,train41_vistrain1,2023-11-30_12h39.57.738,VisTraining,2021.2.3,MacIntel,60.0024001,,,,,,,,,3,"[4,1,1,1,1,1,3,1]",0.69,1,7,1,black,,,
,,,,,,,,,,,,,,,7,0,7,0,1,train41_vistrain1,2023-11-30_12h39.57.738,VisTraining,2021.2.3,MacIntel,60.0024001,,,,,,,,,1,"[4,1,1,1,1,1,3,1]",0.23,1,7,1,black,,,
,,,,,,,,,,,,,,,8,0,8,0,1,train41_vistrain1,2023-11-30_12h39.57.738,VisTraining,2021.2.3,MacIntel,60.0024001,,,,,,,,,4,"[4,1,1,1,1,3,1,1]",0.92,1,7,1,black,,,
,,,,,,,,,,,,,,,9,0,9,0,1,train41_vistrain1,2023-11-30_12h39.57.738,VisTraining,2021.2.3,MacIntel,60.0024001,,,,,,,,,1,"[4,1,1,1,1,3,1,1]",0.23,1,7,1,black,,,
,,,,,,,,,,,,,,,10,0,10,0,1,train41_vistrain1,2023-11-30_12h39.57.738,VisTraining,2021.2.3,MacIntel,60.0024001,,,,,,,,,1,"[4,1,1,1,1,3,1,1]",0.23,1,7,1,black,,,
,,,,,,,,,,,,,,,11,0,11,0,1,train41_vistrain1,2023-11-30_12h39.57.738,VisTraining,2021.2.3,MacIntel,60.0024001,,,,,,,,,1,"[4,1,1,1,1,3,1,1]",0.23,1,7,1,black,,,
,,,,,,,,,,,,,,,12,0,12,0,1,train41_vistrain1,2023-11-30_12h39.57.738,VisTraining,2021.2.3,MacIntel,60.0024001,,,,,,,,,1,"[4,1,1,1,1,3,1,1]",0.23,1,7,1,black,,,
,,,,,,,,,,,,,,,13,0,13,0,1,train41_vistrain1,2023-11-30_12h39.57.738,VisTraining,2021.2.3,MacIntel,60.0024001,,,,,,,,,3,"[4,1,1,1,1,3,1,1]",0.69,1,7,1,black,,,
,,,,,,,,,,,,,,,14,0,14,0,1,train41_vistrain1,2023-11-30_12h39.57.738,VisTraining,2021.2.3,MacIntel,60.0024001,,,,,,,,,1,"[4,1,1,1,1,3,1,1]",0.23,1,7,1,black,,,
,,,,,,,,,,,,,,,15,0,15,0,1,train41_vistrain1,2023-11-30_12h39.57.738,VisTraining,2021.2.3,MacIntel,60.0024001,,,,,,,,,1,"[4,1,1,1,1,3,1,1]",0.23,1,7,1,black,,,
,,,,,,,,,,,,,,,16,0,16,0,1,train41_vistrain1,2023-11-30_12h39.57.738,VisTraining,2021.2.3,MacIntel,60.0024001,,,,,,,,,4,"[4,1,1,1,1,3,1,1]",0.92,1,7,1,black,,,
,,,,,,,,,,,,,,,17,0,17,0,1,train41_vistrain1,2023-11-30_12h39.57.738,VisTraining,2021.2.3,MacIntel,60.0024001,,,,,,,,,1,"[4,1,1,1,1,3,1,1]",0.23,1,7,1,black,,,
,,,,,,,,,,,,,,,18,0,18,0,1,train41_vistrain1,2023-11-30_12h39.57.738,VisTraining,2021.2.3,MacIntel,60.0024001,,,,,,,,,1,"[4,1,1,1,1,3,1,1]",0.23,1,7,1,black,,,
,,,,,,,,,,,,,,,19,0,19,0,1,train41_vistrain1,2023-11-30_12h39.57.738,VisTraining,2021.2.3,MacIntel,60.0024001,,,,,,,,,1,"[4,1,1,1,1,3,1,1]",0.23,1,7,1,black,,,
,,,,,,,,,,,,,,,20,0,20,0,1,train41_vistrain1,2023-11-30_12h39.57.738,VisTraining,2021.2.3,MacIntel,60.0024001,,,,,,,,,1,"[4,1,1,1,1,3,1,1]",0.23,1,7,1,black,,,
,,,,,,,,,,,,,,,21,0,21,0,1,train41_vistrain1,2023-11-30_12h39.57.738,VisTraining,2021.2.3,MacIntel,60.0024001,,,,,,,,,3,"[4,1,1,1,1,3,1,1]",0.69,1,7,1,black,,,
,,,,,,,,,,,,,,,22,0,22,0,1,train41_vistrain1,2023-11-30_12h39.57.738,VisTraining,2021.2.3,MacIntel,60.0024001,,,,,,,,,1,"[4,1,1,1,1,3,1,1]",0.23,1,7,1,black,,,
,,,,,,,,,,,,,,,23,0,23,0,1,train41_vistrain1,2023-11-30_12h39.57.738,VisTraining,2021.2.3,MacIntel,60.0024001,,,,,,,,,1,"[4,1,1,1,1,3,1,1]",0.23,1,7,1,black,,,
,,,,,,,,,,,,,,,,,,,,train41_vistrain1,2023-11-30_12h39.57.738,VisTraining,2021.2.3,MacIntel,60.0024001,,,2,7,0,7,0,1,,,,,,,,0.5491,,
,,,,,,,,,,,,,,,0,0,0,0,1,train41_vistrain1,2023-11-30_12h39.57.738,VisTraining,2021.2.3,MacIntel,60.0024001,,,,,,,,,1,"[1,1,2,3,1,1,3,1]",0.25,2,7,3,black,,,
,,,,,,,,,,,,,,,1,0,1,0,1,train41_vistrain1,2023-11-30_12h39.57.738,VisTraining,2021.2.3,MacIntel,60.0024001,,,,,,,,,1,"[1,1,2,3,1,1,3,1]",0.25,2,7,3,black,,,
,,,,,,,,,,,,,,,2,0,2,0,1,train41_vistrain1,2023-11-30_12h39.57.738,VisTraining,2021.2.3,MacIntel,60.0024001,,,,,,,,,2,"[1,1,2,3,1,1,3,1]",0.5,2,7,3,black,,,
,,,,,,,,,,,,,,,3,0,3,0,1,train41_vistrain1,2023-11-30_12h39.57.738,VisTraining,2021.2.3,MacIntel,60.0024001,,,,,,,,,3,"[1,1,2,3,1,1,3,1]",0.75,2,7,3,black,,,
,,,,,,,,,,,,,,,4,0,4,0,1,train41_vistrain1,2023-11-30_12h39.57.738,VisTraining,2021.2.3,MacIntel,60.0024001,,,,,,,,,1,"[1,1,2,3,1,1,3,1]",0.25,2,7,3,black,,,
,,,,,,,,,,,,,,,5,0,5,0,1,train41_vistrain1,2023-11-30_12h39.57.738,VisTraining,2021.2.3,MacIntel,60.0024001,,,,,,,,,1,"[1,1,2,3,1,1,3,1]",0.25,2,7,3,black,,,
,,,,,,,,,,,,,,,6,0,6,0,1,train41_vistrain1,2023-11-30_12h39.57.738,VisTraining,2021.2.3,MacIntel,60.0024001,,,,,,,,,3,"[1,1,2,3,1,1,3,1]",0.75,2,7,3,black,,,
,,,,,,,,,,,,,,,7,0,7,0,1,train41_vistrain1,2023-11-30_12h39.57.738,VisTraining,2021.2.3,MacIntel,60.0024001,,,,,,,,,1,"[1,1,2,3,1,1,3,1]",0.25,2,7,3,black,,,
,,,,,,,,,,,,,,,8,0,8,0,1,train41_vistrain1,2023-11-30_12h39.57.738,VisTraining,2021.2.3,MacIntel,60.0024001,,,,,,,,,1,"[1,1,2,3,1,1,3,1]",0.25,2,7,3,black,,,
,,,,,,,,,,,,,,,9,0,9,0,1,train41_vistrain1,2023-11-30_12h39.57.738,VisTraining,2021.2.3,MacIntel,60.0024001,,,,,,,,,1,"[1,1,2,3,1,1,3,1]",0.25,2,7,3,black,,,
,,,,,,,,,,,,,,,10,0,10,0,1,train41_vistrain1,2023-11-30_12h39.57.738,VisTraining,2021.2.3,MacIntel,60.0024001,,,,,,,,,2,"[1,1,2,3,1,1,3,1]",0.5,2,7,3,black,,,
,,,,,,,,,,,,,,,11,0,11,0,1,train41_vistrain1,2023-11-30_12h39.57.738,VisTraining,2021.2.3,MacIntel,60.0024001,,,,,,,,,3,"[1,1,2,3,1,1,3,1]",0.75,2,7,3,black,,,
,,,,,,,,,,,,,,,12,0,12,0,1,train41_vistrain1,2023-11-30_12h39.57.738,VisTraining,2021.2.3,MacIntel,60.0024001,,,,,,,,,1,"[1,1,2,3,1,1,3,1]",0.25,2,7,3,black,,,
,,,,,,,,,,,,,,,13,0,13,0,1,train41_vistrain1,2023-11-30_12h39.57.738,VisTraining,2021.2.3,MacIntel,60.0024001,,,,,,,,,1,"[1,1,2,3,1,1,3,1]",0.25,2,7,3,black,,,
,,,,,,,,,,,,,,,14,0,14,0,1,train41_vistrain1,2023-11-30_12h39.57.738,VisTraining,2021.2.3,MacIntel,60.0024001,,,,,,,,,3,"[1,1,2,3,1,1,3,1]",0.75,2,7,3,black,,,
,,,,,,,,,,,,,,,15,0,15,0,1,train41_vistrain1,2023-11-30_12h39.57.738,VisTraining,2021.2.3,MacIntel,60.0024001,,,,,,,,,1,"[1,1,2,3,1,1,3,1]",0.25,2,7,3,black,,,
,,,,,,,,,,,,,,,16,0,16,0,1,train41_vistrain1,2023-11-30_12h39.57.738,VisTraining,2021.2.3,MacIntel,60.0024001,,,,,,,,,1,"[1,1,2,3,1,3,1,1]",0.25,2,7,3,black,,,
,,,,,,,,,,,,,,,17,0,17,0,1,train41_vistrain1,2023-11-30_12h39.57.738,VisTraining,2021.2.3,MacIntel,60.0024001,,,,,,,,,1,"[1,1,2,3,1,3,1,1]",0.25,2,7,3,black,,,
,,,,,,,,,,,,,,,18,0,18,0,1,train41_vistrain1,2023-11-30_12h39.57.738,VisTraining,2021.2.3,MacIntel,60.0024001,,,,,,,,,2,"[1,1,2,3,1,3,1,1]",0.5,2,7,3,black,,,
,,,,,,,,,,,,,,,19,0,19,0,1,train41_vistrain1,2023-11-30_12h39.57.738,VisTraining,2021.2.3,MacIntel,60.0024001,,,,,,,,,3,"[1,1,2,3,1,3,1,1]",0.75,2,7,3,black,,,
,,,,,,,,,,,,,,,20,0,20,0,1,train41_vistrain1,2023-11-30_12h39.57.738,VisTraining,2021.2.3,MacIntel,60.0024001,,,,,,,,,1,"[1,1,2,3,1,3,1,1]",0.25,2,7,3,black,,,
,,,,,,,,,,,,,,,21,0,21,0,1,train41_vistrain1,2023-11-30_12h39.57.738,VisTraining,2021.2.3,MacIntel,60.0024001,,,,,,,,,3,"[1,1,2,3,1,3,1,1]",0.75,2,7,3,black,,,
,,,,,,,,,,,,,,,22,0,22,0,1,train41_vistrain1,2023-11-30_12h39.57.738,VisTraining,2021.2.3,MacIntel,60.0024001,,,,,,,,,1,"[1,1,2,3,1,3,1,1]",0.25,2,7,3,black,,,
,,,,,,,,,,,,,,,23,0,23,0,1,train41_vistrain1,2023-11-30_12h39.57.738,VisTraining,2021.2.3,MacIntel,60.0024001,,,,,,,,,1,"[1,1,2,3,1,3,1,1]",0.25,2,7,3,black,,,
,,,,,,,,,,,,,,,,,,,,train41_vistrain1,2023-11-30_12h39.57.738,VisTraining,2021.2.3,MacIntel,60.0024001,,,3,8,0,8,0,1,,,,,,,,0.5018,,
,,,,,,,,,,,,,,,0,0,0,0,1,train41_vistrain1,2023-11-30_12h39.57.738,VisTraining,2021.2.3,MacIntel,60.0024001,,,,,,,,,2,"[2,2,1,3,3,1,1]",0.5,2,6,2,black,,,
,,,,,,,,,,,,,,,1,0,1,0,1,train41_vistrain1,2023-11-30_12h39.57.738,VisTraining,2021.2.3,MacIntel,60.0024001,,,,,,,,,2,"[2,2,1,3,3,1,1]",0.5,2,6,2,black,,,
,,,,,,,,,,,,,,,2,0,2,0,1,train41_vistrain1,2023-11-30_12h39.57.738,VisTraining,2021.2.3,MacIntel,60.0024001,,,,,,,,,1,"[2,2,1,3,3,1,1]",0.25,2,6,2,black,,,
,,,,,,,,,,,,,,,3,0,3,0,1,train41_vistrain1,2023-11-30_12h39.57.738,VisTraining,2021.2.3,MacIntel,60.0024001,,,,,,,,,3,"[2,2,1,3,3,1,1]",0.75,2,6,2,black,,,
,,,,,,,,,,,,,,,4,0,4,0,1,train41_vistrain1,2023-11-30_12h39.57.738,VisTraining,2021.2.3,MacIntel,60.0024001,,,,,,,,,3,"[2,2,1,3,3,1,1]",0.75,2,6,2,black,,,
,,,,,,,,,,,,,,,5,0,5,0,1,train41_vistrain1,2023-11-30_12h39.57.738,VisTraining,2021.2.3,MacIntel,60.0024001,,,,,,,,,1,"[2,2,1,3,3,1,1]",0.25,2,6,2,black,,,
,,,,,,,,,,,,,,,6,0,6,0,1,train41_vistrain1,2023-11-30_12h39.57.738,VisTraining,2021.2.3,MacIntel,60.0024001,,,,,,,,,1,"[2,2,1,3,3,1,1]",0.25,2,6,2,black,,,
,,,,,,,,,,,,,,,7,0,7,0,1,train41_vistrain1,2023-11-30_12h39.57.738,VisTraining,2021.2.3,MacIntel,60.0024001,,,,,,,,,2,"[2,2,1,3,1,3,1]",0.5,2,6,2,black,,,
,,,,,,,,,,,,,,,8,0,8,0,1,train41_vistrain1,2023-11-30_12h39.57.738,VisTraining,2021.2.3,MacIntel,60.0024001,,,,,,,,,2,"[2,2,1,3,1,3,1]",0.5,2,6,2,black,,,
,,,,,,,,,,,,,,,9,0,9,0,1,train41_vistrain1,2023-11-30_12h39.57.738,VisTraining,2021.2.3,MacIntel,60.0024001,,,,,,,,,1,"[2,2,1,3,1,3,1]",0.25,2,6,2,black,,,
,,,,,,,,,,,,,,,10,0,10,0,1,train41_vistrain1,2023-11-30_12h39.57.738,VisTraining,2021.2.3,MacIntel,60.0024001,,,,,,,,,3,"[2,2,1,3,1,3,1]",0.75,2,6,2,black,,,
,,,,,,,,,,,,,,,11,0,11,0,1,train41_vistrain1,2023-11-30_12h39.57.738,VisTraining,2021.2.3,MacIntel,60.0024001,,,,,,,,,1,"[2,2,1,3,1,3,1]",0.25,2,6,2,black,,,
,,,,,,,,,,,,,,,12,0,12,0,1,train41_vistrain1,2023-11-30_12h39.57.738,VisTraining,2021.2.3,MacIntel,60.0024001,,,,,,,,,3,"[2,2,1,3,1,3,1]",0.75,2,6,2,black,,,
,,,,,,,,,,,,,,,13,0,13,0,1,train41_vistrain1,2023-11-30_12h39.57.738,VisTraining,2021.2.3,MacIntel,60.0024001,,,,,,,,,1,"[2,2,1,3,1,3,1]",0.25,2,6,2,black,,,
,,,,,,,,,,,,,,,14,0,14,0,1,train41_vistrain1,2023-11-30_12h39.57.738,VisTraining,2021.2.3,MacIntel,60.0024001,,,,,,,,,2,"[2,2,1,3,3,1,1]",0.5,2,6,2,black,,,
,,,,,,,,,,,,,,,15,0,15,0,1,train41_vistrain1,2023-11-30_12h39.57.738,VisTraining,2021.2.3,MacIntel,60.0024001,,,,,,,,,2,"[2,2,1,3,3,1,1]",0.5,2,6,2,black,,,
,,,,,,,,,,,,,,,16,0,16,0,1,train41_vistrain1,2023-11-30_12h39.57.738,VisTraining,2021.2.3,MacIntel,60.0024001,,,,,,,,,1,"[2,2,1,3,3,1,1]",0.25,2,6,2,black,,,
,,,,,,,,,,,,,,,17,0,17,0,1,train41_vistrain1,2023-11-30_12h39.57.738,VisTraining,2021.2.3,MacIntel,60.0024001,,,,,,,,,3,"[2,2,1,3,3,1,1]",0.75,2,6,2,black,,,
,,,,,,,,,,,,,,,18,0,18,0,1,train41_vistrain1,2023-11-30_12h39.57.738,VisTraining,2021.2.3,MacIntel,60.0024001,,,,,,,,,3,"[2,2,1,3,3,1,1]",0.75,2,6,2,black,,,
,,,,,,,,,,,,,,,19,0,19,0,1,train41_vistrain1,2023-11-30_12h39.57.738,VisTraining,2021.2.3,MacIntel,60.0024001,,,,,,,,,1,"[2,2,1,3,3,1,1]",0.25,2,6,2,black,,,
,,,,,,,,,,,,,,,20,0,20,0,1,train41_vistrain1,2023-11-30_12h39.57.738,VisTraining,2021.2.3,MacIntel,60.0024001,,,,,,,,,1,"[2,2,1,3,3,1,1]",0.25,2,6,2,black,,,
,,,,,,,,,,,,,,,,,,,,train41_vistrain1,2023-11-30_12h39.57.738,VisTraining,2021.2.3,MacIntel,60.0024001,,,2,9,0,9,0,1,,,,,,,,1.0167,,
,,,,,,,,,,,,,,,0,0,0,0,1,train41_vistrain1,2023-11-30_12h39.57.738,VisTraining,2021.2.3,MacIntel,60.0024001,,,,,,,,,2,"[2,1,1,2,1,1,4,1]",0.5,2,7,1,black,,,
,,,,,,,,,,,,,,,1,0,1,0,1,train41_vistrain1,2023-11-30_12h39.57.738,VisTraining,2021.2.3,MacIntel,60.0024001,,,,,,,,,1,"[2,1,1,2,1,1,4,1]",0.25,2,7,1,black,,,
,,,,,,,,,,,,,,,2,0,2,0,1,train41_vistrain1,2023-11-30_12h39.57.738,VisTraining,2021.2.3,MacIntel,60.0024001,,,,,,,,,1,"[2,1,1,2,1,1,4,1]",0.25,2,7,1,black,,,
,,,,,,,,,,,,,,,3,0,3,0,1,train41_vistrain1,2023-11-30_12h39.57.738,VisTraining,2021.2.3,MacIntel,60.0024001,,,,,,,,,2,"[2,1,1,2,1,1,4,1]",0.5,2,7,1,black,,,
,,,,,,,,,,,,,,,4,0,4,0,1,train41_vistrain1,2023-11-30_12h39.57.738,VisTraining,2021.2.3,MacIntel,60.0024001,,,,,,,,,1,"[2,1,1,2,1,1,4,1]",0.25,2,7,1,black,,,
,,,,,,,,,,,,,,,5,0,5,0,1,train41_vistrain1,2023-11-30_12h39.57.738,VisTraining,2021.2.3,MacIntel,60.0024001,,,,,,,,,1,"[2,1,1,2,1,1,4,1]",0.25,2,7,1,black,,,
,,,,,,,,,,,,,,,6,0,6,0,1,train41_vistrain1,2023-11-30_12h39.57.738,VisTraining,2021.2.3,MacIntel,60.0024001,,,,,,,,,4,"[2,1,1,2,1,1,4,1]",1,2,7,1,black,,,
,,,,,,,,,,,,,,,7,0,7,0,1,train41_vistrain1,2023-11-30_12h39.57.738,VisTraining,2021.2.3,MacIntel,60.0024001,,,,,,,,,1,"[2,1,1,2,1,1,4,1]",0.25,2,7,1,black,,,
,,,,,,,,,,,,,,,8,0,8,0,1,train41_vistrain1,2023-11-30_12h39.57.738,VisTraining,2021.2.3,MacIntel,60.0024001,,,,,,,,,2,"[2,2,1,1,1,1,4,1]",0.5,2,7,1,black,,,
,,,,,,,,,,,,,,,9,0,9,0,1,train41_vistrain1,2023-11-30_12h39.57.738,VisTraining,2021.2.3,MacIntel,60.0024001,,,,,,,,,2,"[2,2,1,1,1,1,4,1]",0.5,2,7,1,black,,,
,,,,,,,,,,,,,,,10,0,10,0,1,train41_vistrain1,2023-11-30_12h39.57.738,VisTraining,2021.2.3,MacIntel,60.0024001,,,,,,,,,1,"[2,2,1,1,1,1,4,1]",0.25,2,7,1,black,,,
,,,,,,,,,,,,,,,11,0,11,0,1,train41_vistrain1,2023-11-30_12h39.57.738,VisTraining,2021.2.3,MacIntel,60.0024001,,,,,,,,,1,"[2,2,1,1,1,1,4,1]",0.25,2,7,1,black,,,
,,,,,,,,,,,,,,,12,0,12,0,1,train41_vistrain1,2023-11-30_12h39.57.738,VisTraining,2021.2.3,MacIntel,60.0024001,,,,,,,,,1,"[2,2,1,1,1,1,4,1]",0.25,2,7,1,black,,,
,,,,,,,,,,,,,,,13,0,13,0,1,train41_vistrain1,2023-11-30_12h39.57.738,VisTraining,2021.2.3,MacIntel,60.0024001,,,,,,,,,1,"[2,2,1,1,1,1,4,1]",0.25,2,7,1,black,,,
,,,,,,,,,,,,,,,14,0,14,0,1,train41_vistrain1,2023-11-30_12h39.57.738,VisTraining,2021.2.3,MacIntel,60.0024001,,,,,,,,,4,"[2,2,1,1,1,1,4,1]",1,2,7,1,black,,,
,,,,,,,,,,,,,,,15,0,15,0,1,train41_vistrain1,2023-11-30_12h39.57.738,VisTraining,2021.2.3,MacIntel,60.0024001,,,,,,,,,1,"[2,2,1,1,1,1,4,1]",0.25,2,7,1,black,,,
,,,,,,,,,,,,,,,16,0,16,0,1,train41_vistrain1,2023-11-30_12h39.57.738,VisTraining,2021.2.3,MacIntel,60.0024001,,,,,,,,,2,"[2,2,1,1,1,1,4,1]",0.5,2,7,1,black,,,
,,,,,,,,,,,,,,,17,0,17,0,1,train41_vistrain1,2023-11-30_12h39.57.738,VisTraining,2021.2.3,MacIntel,60.0024001,,,,,,,,,2,"[2,2,1,1,1,1,4,1]",0.5,2,7,1,black,,,
,,,,,,,,,,,,,,,18,0,18,0,1,train41_vistrain1,2023-11-30_12h39.57.738,VisTraining,2021.2.3,MacIntel,60.0024001,,,,,,,,,1,"[2,2,1,1,1,1,4,1]",0.25,2,7,1,black,,,
,,,,,,,,,,,,,,,19,0,19,0,1,train41_vistrain1,2023-11-30_12h39.57.738,VisTraining,2021.2.3,MacIntel,60.0024001,,,,,,,,,1,"[2,2,1,1,1,1,4,1]",0.25,2,7,1,black,,,
,,,,,,,,,,,,,,,20,0,20,0,1,train41_vistrain1,2023-11-30_12h39.57.738,VisTraining,2021.2.3,MacIntel,60.0024001,,,,,,,,,1,"[2,2,1,1,1,1,4,1]",0.25,2,7,1,black,,,
,,,,,,,,,,,,,,,21,0,21,0,1,train41_vistrain1,2023-11-30_12h39.57.738,VisTraining,2021.2.3,MacIntel,60.0024001,,,,,,,,,1,"[2,2,1,1,1,1,4,1]",0.25,2,7,1,black,,,
,,,,,,,,,,,,,,,22,0,22,0,1,train41_vistrain1,2023-11-30_12h39.57.738,VisTraining,2021.2.3,MacIntel,60.0024001,,,,,,,,,4,"[2,2,1,1,1,1,4,1]",1,2,7,1,black,,,
,,,,,,,,,,,,,,,23,0,23,0,1,train41_vistrain1,2023-11-30_12h39.57.738,VisTraining,2021.2.3,MacIntel,60.0024001,,,,,,,,,1,"[2,2,1,1,1,1,4,1]",0.25,2,7,1,black,,,
,,,,,,,,,,,,,,,,,,,,train41_vistrain1,2023-11-30_12h39.57.738,VisTraining,2021.2.3,MacIntel,60.0024001,,,2,10,0,10,0,1,,,,,,,,0.2467,,
,,,,,,,,,,,,,,,0,0,0,0,1,train41_vistrain1,2023-11-30_12h39.57.738,VisTraining,2021.2.3,MacIntel,60.0024001,,,,,,,,,4,"[4,1,1,2,3,1,1]",0.92,1,6,3,black,,,
,,,,,,,,,,,,,,,1,0,1,0,1,train41_vistrain1,2023-11-30_12h39.57.738,VisTraining,2021.2.3,MacIntel,60.0024001,,,,,,,,,1,"[4,1,1,2,3,1,1]",0.23,1,6,3,black,,,
,,,,,,,,,,,,,,,2,0,2,0,1,train41_vistrain1,2023-11-30_12h39.57.738,VisTraining,2021.2.3,MacIntel,60.0024001,,,,,,,,,1,"[4,1,1,2,3,1,1]",0.23,1,6,3,black,,,
,,,,,,,,,,,,,,,3,0,3,0,1,train41_vistrain1,2023-11-30_12h39.57.738,VisTraining,2021.2.3,MacIntel,60.0024001,,,,,,,,,2,"[4,1,1,2,3,1,1]",0.46,1,6,3,black,,,
,,,,,,,,,,,,,,,4,0,4,0,1,train41_vistrain1,2023-11-30_12h39.57.738,VisTraining,2021.2.3,MacIntel,60.0024001,,,,,,,,,3,"[4,1,1,2,3,1,1]",0.69,1,6,3,black,,,
,,,,,,,,,,,,,,,5,0,5,0,1,train41_vistrain1,2023-11-30_12h39.57.738,VisTraining,2021.2.3,MacIntel,60.0024001,,,,,,,,,1,"[4,1,1,2,3,1,1]",0.23,1,6,3,black,,,
,,,,,,,,,,,,,,,6,0,6,0,1,train41_vistrain1,2023-11-30_12h39.57.738,VisTraining,2021.2.3,MacIntel,60.0024001,,,,,,,,,1,"[4,1,1,2,3,1,1]",0.23,1,6,3,black,,,
,,,,,,,,,,,,,,,7,0,7,0,1,train41_vistrain1,2023-11-30_12h39.57.738,VisTraining,2021.2.3,MacIntel,60.0024001,,,,,,,,,4,"[4,1,1,2,3,1,1]",0.92,1,6,3,black,,,
,,,,,,,,,,,,,,,8,0,8,0,1,train41_vistrain1,2023-11-30_12h39.57.738,VisTraining,2021.2.3,MacIntel,60.0024001,,,,,,,,,1,"[4,1,1,2,3,1,1]",0.23,1,6,3,black,,,
,,,,,,,,,,,,,,,9,0,9,0,1,train41_vistrain1,2023-11-30_12h39.57.738,VisTraining,2021.2.3,MacIntel,60.0024001,,,,,,,,,1,"[4,1,1,2,3,1,1]",0.23,1,6,3,black,,,
,,,,,,,,,,,,,,,10,0,10,0,1,train41_vistrain1,2023-11-30_12h39.57.738,VisTraining,2021.2.3,MacIntel,60.0024001,,,,,,,,,2,"[4,1,1,2,3,1,1]",0.46,1,6,3,black,,,
,,,,,,,,,,,,,,,11,0,11,0,1,train41_vistrain1,2023-11-30_12h39.57.738,VisTraining,2021.2.3,MacIntel,60.0024001,,,,,,,,,3,"[4,1,1,2,3,1,1]",0.69,1,6,3,black,,,
,,,,,,,,,,,,,,,12,0,12,0,1,train41_vistrain1,2023-11-30_12h39.57.738,VisTraining,2021.2.3,MacIntel,60.0024001,,,,,,,,,1,"[4,1,1,2,3,1,1]",0.23,1,6,3,black,,,
,,,,,,,,,,,,,,,13,0,13,0,1,train41_vistrain1,2023-11-30_12h39.57.738,VisTraining,2021.2.3,MacIntel,60.0024001,,,,,,,,,1,"[4,1,1,2,3,1,1]",0.23,1,6,3,black,,,
,,,,,,,,,,,,,,,14,0,14,0,1,train41_vistrain1,2023-11-30_12h39.57.738,VisTraining,2021.2.3,MacIntel,60.0024001,,,,,,,,,4,"[4,1,1,2,1,3,1]",0.92,1,6,3,black,,,
,,,,,,,,,,,,,,,15,0,15,0,1,train41_vistrain1,2023-11-30_12h39.57.738,VisTraining,2021.2.3,MacIntel,60.0024001,,,,,,,,,1,"[4,1,1,2,1,3,1]",0.23,1,6,3,black,,,
,,,,,,,,,,,,,,,16,0,16,0,1,train41_vistrain1,2023-11-30_12h39.57.738,VisTraining,2021.2.3,MacIntel,60.0024001,,,,,,,,,1,"[4,1,1,2,1,3,1]",0.23,1,6,3,black,,,
,,,,,,,,,,,,,,,17,0,17,0,1,train41_vistrain1,2023-11-30_12h39.57.738,VisTraining,2021.2.3,MacIntel,60.0024001,,,,,,,,,2,"[4,1,1,2,1,3,1]",0.46,1,6,3,black,,,
,,,,,,,,,,,,,,,18,0,18,0,1,train41_vistrain1,2023-11-30_12h39.57.738,VisTraining,2021.2.3,MacIntel,60.0024001,,,,,,,,,1,"[4,1,1,2,1,3,1]",0.23,1,6,3,black,,,
,,,,,,,,,,,,,,,19,0,19,0,1,train41_vistrain1,2023-11-30_12h39.57.738,VisTraining,2021.2.3,MacIntel,60.0024001,,,,,,,,,3,"[4,1,1,2,1,3,1]",0.69,1,6,3,black,,,
,,,,,,,,,,,,,,,20,0,20,0,1,train41_vistrain1,2023-11-30_12h39.57.738,VisTraining,2021.2.3,MacIntel,60.0024001,,,,,,,,,1,"[4,1,1,2,1,3,1]",0.23,1,6,3,black,,,
,,,,,,,,,,,,,,,,,,,,train41_vistrain1,2023-11-30_12h39.57.738,VisTraining,2021.2.3,MacIntel,60.0024001,,,2,11,0,11,0,1,,,,,,,,1.4366,,
,,,,,,,,,,,,,,,0,0,0,0,1,train41_vistrain1,2023-11-30_12h39.57.738,VisTraining,2021.2.3,MacIntel,60.0024001,,,,,,,,,2,"[2,1,1,3,1,3,1,1]",0.46,1,7,1,black,,,
,,,,,,,,,,,,,,,1,0,1,0,1,train41_vistrain1,2023-11-30_12h39.57.738,VisTraining,2021.2.3,MacIntel,60.0024001,,,,,,,,,1,"[2,1,1,3,1,3,1,1]",0.23,1,7,1,black,,,
,,,,,,,,,,,,,,,2,0,2,0,1,train41_vistrain1,2023-11-30_12h39.57.738,VisTraining,2021.2.3,MacIntel,60.0024001,,,,,,,,,1,"[2,1,1,3,1,3,1,1]",0.23,1,7,1,black,,,
,,,,,,,,,,,,,,,3,0,3,0,1,train41_vistrain1,2023-11-30_12h39.57.738,VisTraining,2021.2.3,MacIntel,60.0024001,,,,,,,,,3,"[2,1,1,3,1,3,1,1]",0.69,1,7,1,black,,,
,,,,,,,,,,,,,,,4,0,4,0,1,train41_vistrain1,2023-11-30_12h39.57.738,VisTraining,2021.2.3,MacIntel,60.0024001,,,,,,,,,1,"[2,1,1,3,1,3,1,1]",0.23,1,7,1,black,,,
,,,,,,,,,,,,,,,5,0,5,0,1,train41_vistrain1,2023-11-30_12h39.57.738,VisTraining,2021.2.3,MacIntel,60.0024001,,,,,,,,,3,"[2,1,1,3,1,3,1,1]",0.69,1,7,1,black,,,
,,,,,,,,,,,,,,,6,0,6,0,1,train41_vistrain1,2023-11-30_12h39.57.738,VisTraining,2021.2.3,MacIntel,60.0024001,,,,,,,,,1,"[2,1,1,3,1,3,1,1]",0.23,1,7,1,black,,,
,,,,,,,,,,,,,,,7,0,7,0,1,train41_vistrain1,2023-11-30_12h39.57.738,VisTraining,2021.2.3,MacIntel,60.0024001,,,,,,,,,1,"[2,1,1,3,1,3,1,1]",0.23,1,7,1,black,,,
,,,,,,,,,,,,,,,8,0,8,0,1,train41_vistrain1,2023-11-30_12h39.57.738,VisTraining,2021.2.3,MacIntel,60.0024001,,,,,,,,,2,"[2,1,1,3,1,1,3,1]",0.46,1,7,1,black,,,
,,,,,,,,,,,,,,,9,0,9,0,1,train41_vistrain1,2023-11-30_12h39.57.738,VisTraining,2021.2.3,MacIntel,60.0024001,,,,,,,,,1,"[2,1,1,3,1,1,3,1]",0.23,1,7,1,black,,,
,,,,,,,,,,,,,,,10,0,10,0,1,train41_vistrain1,2023-11-30_12h39.57.738,VisTraining,2021.2.3,MacIntel,60.0024001,,,,,,,,,1,"[2,1,1,3,1,1,3,1]",0.23,1,7,1,black,,,
,,,,,,,,,,,,,,,11,0,11,0,1,train41_vistrain1,2023-11-30_12h39.57.738,VisTraining,2021.2.3,MacIntel,60.0024001,,,,,,,,,3,"[2,1,1,3,1,1,3,1]",0.69,1,7,1,black,,,
,,,,,,,,,,,,,,,12,0,12,0,1,train41_vistrain1,2023-11-30_12h39.57.738,VisTraining,2021.2.3,MacIntel,60.0024001,,,,,,,,,1,"[2,1,1,3,1,1,3,1]",0.23,1,7,1,black,,,
,,,,,,,,,,,,,,,13,0,13,0,1,train41_vistrain1,2023-11-30_12h39.57.738,VisTraining,2021.2.3,MacIntel,60.0024001,,,,,,,,,1,"[2,1,1,3,1,1,3,1]",0.23,1,7,1,black,,,
,,,,,,,,,,,,,,,14,0,14,0,1,train41_vistrain1,2023-11-30_12h39.57.738,VisTraining,2021.2.3,MacIntel,60.0024001,,,,,,,,,3,"[2,1,1,3,1,1,3,1]",0.69,1,7,1,black,,,
,,,,,,,,,,,,,,,15,0,15,0,1,train41_vistrain1,2023-11-30_12h39.57.738,VisTraining,2021.2.3,MacIntel,60.0024001,,,,,,,,,1,"[2,1,1,3,1,1,3,1]",0.23,1,7,1,black,,,
,,,,,,,,,,,,,,,16,0,16,0,1,train41_vistrain1,2023-11-30_12h39.57.738,VisTraining,2021.2.3,MacIntel,60.0024001,,,,,,,,,2,"[2,1,1,3,1,1,3,1]",0.46,1,7,1,black,,,
,,,,,,,,,,,,,,,17,0,17,0,1,train41_vistrain1,2023-11-30_12h39.57.738,VisTraining,2021.2.3,MacIntel,60.0024001,,,,,,,,,1,"[2,1,1,3,1,1,3,1]",0.23,1,7,1,black,,,
,,,,,,,,,,,,,,,18,0,18,0,1,train41_vistrain1,2023-11-30_12h39.57.738,VisTraining,2021.2.3,MacIntel,60.0024001,,,,,,,,,1,"[2,1,1,3,1,1,3,1]",0.23,1,7,1,black,,,
,,,,,,,,,,,,,,,19,0,19,0,1,train41_vistrain1,2023-11-30_12h39.57.738,VisTraining,2021.2.3,MacIntel,60.0024001,,,,,,,,,3,"[2,1,1,3,1,1,3,1]",0.69,1,7,1,black,,,
,,,,,,,,,,,,,,,20,0,20,0,1,train41_vistrain1,2023-11-30_12h39.57.738,VisTraining,2021.2.3,MacIntel,60.0024001,,,,,,,,,1,"[2,1,1,3,1,1,3,1]",0.23,1,7,1,black,,,
,,,,,,,,,,,,,,,21,0,21,0,1,train41_vistrain1,2023-11-30_12h39.57.738,VisTraining,2021.2.3,MacIntel,60.0024001,,,,,,,,,1,"[2,1,1,3,1,1,3,1]",0.23,1,7,1,black,,,
,,,,,,,,,,,,,,,22,0,22,0,1,train41_vistrain1,2023-11-30_12h39.57.738,VisTraining,2021.2.3,MacIntel,60.0024001,,,,,,,,,3,"[2,1,1,3,1,1,3,1]",0.69,1,7,1,black,,,
,,,,,,,,,,,,,,,23,0,23,0,1,train41_vistrain1,2023-11-30_12h39.57.738,VisTraining,2021.2.3,MacIntel,60.0024001,,,,,,,,,1,"[2,1,1,3,1,1,3,1]",0.23,1,7,1,black,,,
,,,,,,,,,,,,,,,,,,,,train41_vistrain1,2023-11-30_12h39.57.738,VisTraining,2021.2.3,MacIntel,60.0024001,,,2,12,0,12,0,1,,,,,,,,1.8885,,
,,,,,,,,,,,,,,,0,0,0,0,1,train41_vistrain1,2023-11-30_12h39.57.738,VisTraining,2021.2.3,MacIntel,60.0024001,,,,,,,,,4,"[4,3,1,3,1,1]",1.08,3,5,1,black,,,
,,,,,,,,,,,,,,,1,0,1,0,1,train41_vistrain1,2023-11-30_12h39.57.738,VisTraining,2021.2.3,MacIntel,60.0024001,,,,,,,,,3,"[4,3,1,3,1,1]",0.81,3,5,1,black,,,
,,,,,,,,,,,,,,,2,0,2,0,1,train41_vistrain1,2023-11-30_12h39.57.738,VisTraining,2021.2.3,MacIntel,60.0024001,,,,,,,,,1,"[4,3,1,3,1,1]",0.27,3,5,1,black,,,
,,,,,,,,,,,,,,,3,0,3,0,1,train41_vistrain1,2023-11-30_12h39.57.738,VisTraining,2021.2.3,MacIntel,60.0024001,,,,,,,,,3,"[4,3,1,3,1,1]",0.81,3,5,1,black,,,
,,,,,,,,,,,,,,,4,0,4,0,1,train41_vistrain1,2023-11-30_12h39.57.738,VisTraining,2021.2.3,MacIntel,60.0024001,,,,,,,,,1,"[4,3,1,3,1,1]",0.27,3,5,1,black,,,
,,,,,,,,,,,,,,,5,0,5,0,1,train41_vistrain1,2023-11-30_12h39.57.738,VisTraining,2021.2.3,MacIntel,60.0024001,,,,,,,,,1,"[4,3,1,3,1,1]",0.27,3,5,1,black,,,
,,,,,,,,,,,,,,,6,0,6,0,1,train41_vistrain1,2023-11-30_12h39.57.738,VisTraining,2021.2.3,MacIntel,60.0024001,,,,,,,,,4,"[4,1,3,3,1,1]",1.08,3,5,1,black,,,
,,,,,,,,,,,,,,,7,0,7,0,1,train41_vistrain1,2023-11-30_12h39.57.738,VisTraining,2021.2.3,MacIntel,60.0024001,,,,,,,,,1,"[4,1,3,3,1,1]",0.27,3,5,1,black,,,
,,,,,,,,,,,,,,,8,0,8,0,1,train41_vistrain1,2023-11-30_12h39.57.738,VisTraining,2021.2.3,MacIntel,60.0024001,,,,,,,,,3,"[4,1,3,3,1,1]",0.81,3,5,1,black,,,
,,,,,,,,,,,,,,,9,0,9,0,1,train41_vistrain1,2023-11-30_12h39.57.738,VisTraining,2021.2.3,MacIntel,60.0024001,,,,,,,,,3,"[4,1,3,3,1,1]",0.81,3,5,1,black,,,
,,,,,,,,,,,,,,,10,0,10,0,1,train41_vistrain1,2023-11-30_12h39.57.738,VisTraining,2021.2.3,MacIntel,60.0024001,,,,,,,,,1,"[4,1,3,3,1,1]",0.27,3,5,1,black,,,
,,,,,,,,,,,,,,,11,0,11,0,1,train41_vistrain1,2023-11-30_12h39.57.738,VisTraining,2021.2.3,MacIntel,60.0024001,,,,,,,,,1,"[4,1,3,3,1,1]",0.27,3,5,1,black,,,
,,,,,,,,,,,,,,,12,0,12,0,1,train41_vistrain1,2023-11-30_12h39.57.738,VisTraining,2021.2.3,MacIntel,60.0024001,,,,,,,,,4,"[4,1,3,3,1,1]",1.08,3,5,1,black,,,
,,,,,,,,,,,,,,,13,0,13,0,1,train41_vistrain1,2023-11-30_12h39.57.738,VisTraining,2021.2.3,MacIntel,60.0024001,,,,,,,,,1,"[4,1,3,3,1,1]",0.27,3,5,1,black,,,
,,,,,,,,,,,,,,,14,0,14,0,1,train41_vistrain1,2023-11-30_12h39.57.738,VisTraining,2021.2.3,MacIntel,60.0024001,,,,,,,,,3,"[4,1,3,3,1,1]",0.81,3,5,1,black,,,
,,,,,,,,,,,,,,,15,0,15,0,1,train41_vistrain1,2023-11-30_12h39.57.738,VisTraining,2021.2.3,MacIntel,60.0024001,,,,,,,,,3,"[4,1,3,3,1,1]",0.81,3,5,1,black,,,
,,,,,,,,,,,,,,,16,0,16,0,1,train41_vistrain1,2023-11-30_12h39.57.738,VisTraining,2021.2.3,MacIntel,60.0024001,,,,,,,,,1,"[4,1,3,3,1,1]",0.27,3,5,1,black,,,
,,,,,,,,,,,,,,,17,0,17,0,1,train41_vistrain1,2023-11-30_12h39.57.738,VisTraining,2021.2.3,MacIntel,60.0024001,,,,,,,,,1,"[4,1,3,3,1,1]",0.27,3,5,1,black,,,
,,,,,,,,,,,,,,,,,,,,train41_vistrain1,2023-11-30_12h39.57.738,VisTraining,2021.2.3,MacIntel,60.0024001,,,2,13,0,13,0,1,,,,,,,,0.5272,,
,,,,,,,,,,,,,,,0,0,0,0,1,train41_vistrain1,2023-11-30_12h39.57.738,VisTraining,2021.2.3,MacIntel,60.0024001,,,,,,,,,2,"[2,2,4,1,3,1]",0.54,3,5,3,green,,,
,,,,,,,,,,,,,,,1,0,1,0,1,train41_vistrain1,2023-11-30_12h39.57.738,VisTraining,2021.2.3,MacIntel,60.0024001,,,,,,,,,2,"[2,2,4,1,3,1]",0.54,3,5,3,green,,,
,,,,,,,,,,,,,,,2,0,2,0,1,train41_vistrain1,2023-11-30_12h39.57.738,VisTraining,2021.2.3,MacIntel,60.0024001,,,,,,,,,4,"[2,2,4,1,3,1]",1.08,3,5,3,green,,,
,,,,,,,,,,,,,,,3,0,3,0,1,train41_vistrain1,2023-11-30_12h39.57.738,VisTraining,2021.2.3,MacIntel,60.0024001,,,,,,,,,1,"[2,2,4,1,3,1]",0.27,3,5,3,green,,,
,,,,,,,,,,,,,,,4,0,4,0,1,train41_vistrain1,2023-11-30_12h39.57.738,VisTraining,2021.2.3,MacIntel,60.0024001,,,,,,,,,3,"[2,2,4,1,3,1]",0.81,3,5,3,green,,,
,,,,,,,,,,,,,,,5,0,5,0,1,train41_vistrain1,2023-11-30_12h39.57.738,VisTraining,2021.2.3,MacIntel,60.0024001,,,,,,,,,1,"[2,2,4,1,3,1]",0.27,3,5,3,green,,,
,,,,,,,,,,,,,,,6,0,6,0,1,train41_vistrain1,2023-11-30_12h39.57.738,VisTraining,2021.2.3,MacIntel,60.0024001,,,,,,,,,2,"[2,2,4,1,3,1]",0.54,3,5,3,green,,,
,,,,,,,,,,,,,,,7,0,7,0,1,train41_vistrain1,2023-11-30_12h39.57.738,VisTraining,2021.2.3,MacIntel,60.0024001,,,,,,,,,2,"[2,2,4,1,3,1]",0.54,3,5,3,green,,,
,,,,,,,,,,,,,,,8,0,8,0,1,train41_vistrain1,2023-11-30_12h39.57.738,VisTraining,2021.2.3,MacIntel,60.0024001,,,,,,,,,4,"[2,2,4,1,3,1]",1.08,3,5,3,green,,,
,,,,,,,,,,,,,,,9,0,9,0,1,train41_vistrain1,2023-11-30_12h39.57.738,VisTraining,2021.2.3,MacIntel,60.0024001,,,,,,,,,1,"[2,2,4,1,3,1]",0.27,3,5,3,green,,,
,,,,,,,,,,,,,,,10,0,10,0,1,train41_vistrain1,2023-11-30_12h39.57.738,VisTraining,2021.2.3,MacIntel,60.0024001,,,,,,,,,3,"[2,2,4,1,3,1]",0.81,3,5,3,green,,,
,,,,,,,,,,,,,,,11,0,11,0,1,train41_vistrain1,2023-11-30_12h39.57.738,VisTraining,2021.2.3,MacIntel,60.0024001,,,,,,,,,1,"[2,2,4,1,3,1]",0.27,3,5,3,green,,,
,,,,,,,,,,,,,,,12,0,12,0,1,train41_vistrain1,2023-11-30_12h39.57.738,VisTraining,2021.2.3,MacIntel,60.0024001,,,,,,,,,2,"[2,2,4,3,1,1]",0.54,3,5,3,green,,,
,,,,,,,,,,,,,,,13,0,13,0,1,train41_vistrain1,2023-11-30_12h39.57.738,VisTraining,2021.2.3,MacIntel,60.0024001,,,,,,,,,2,"[2,2,4,3,1,1]",0.54,3,5,3,green,,,
,,,,,,,,,,,,,,,14,0,14,0,1,train41_vistrain1,2023-11-30_12h39.57.738,VisTraining,2021.2.3,MacIntel,60.0024001,,,,,,,,,4,"[2,2,4,3,1,1]",1.08,3,5,3,green,,,
,,,,,,,,,,,,,,,15,0,15,0,1,train41_vistrain1,2023-11-30_12h39.57.738,VisTraining,2021.2.3,MacIntel,60.0024001,,,,,,,,,3,"[2,2,4,3,1,1]",0.81,3,5,3,green,,,
,,,,,,,,,,,,,,,16,0,16,0,1,train41_vistrain1,2023-11-30_12h39.57.738,VisTraining,2021.2.3,MacIntel,60.0024001,,,,,,,,,1,"[2,2,4,3,1,1]",0.27,3,5,3,green,,,
,,,,,,,,,,,,,,,17,0,17,0,1,train41_vistrain1,2023-11-30_12h39.57.738,VisTraining,2021.2.3,MacIntel,60.0024001,,,,,,,,,1,"[2,2,4,3,1,1]",0.27,3,5,3,green,,,
,,,,,,,,,,,,,,,,,,,,train41_vistrain1,2023-11-30_12h39.57.738,VisTraining,2021.2.3,MacIntel,60.0024001,,,g,14,0,14,0,1,,,,,,,,2.1858,,
,,,,,,,,,,,,,,,0,0,0,0,1,train41_vistrain1,2023-11-30_12h39.57.738,VisTraining,2021.2.3,MacIntel,60.0024001,,,,,,,,,1,"[1,1,2,2,2,4,1]",0.23,1,6,1,black,,,
,,,,,,,,,,,,,,,1,0,1,0,1,train41_vistrain1,2023-11-30_12h39.57.738,VisTraining,2021.2.3,MacIntel,60.0024001,,,,,,,,,1,"[1,1,2,2,2,4,1]",0.23,1,6,1,black,,,
,,,,,,,,,,,,,,,2,0,2,0,1,train41_vistrain1,2023-11-30_12h39.57.738,VisTraining,2021.2.3,MacIntel,60.0024001,,,,,,,,,2,"[1,1,2,2,2,4,1]",0.46,1,6,1,black,,,
,,,,,,,,,,,,,,,3,0,3,0,1,train41_vistrain1,2023-11-30_12h39.57.738,VisTraining,2021.2.3,MacIntel,60.0024001,,,,,,,,,2,"[1,1,2,2,2,4,1]",0.46,1,6,1,black,,,
,,,,,,,,,,,,,,,4,0,4,0,1,train41_vistrain1,2023-11-30_12h39.57.738,VisTraining,2021.2.3,MacIntel,60.0024001,,,,,,,,,2,"[1,1,2,2,2,4,1]",0.46,1,6,1,black,,,
,,,,,,,,,,,,,,,5,0,5,0,1,train41_vistrain1,2023-11-30_12h39.57.738,VisTraining,2021.2.3,MacIntel,60.0024001,,,,,,,,,4,"[1,1,2,2,2,4,1]",0.92,1,6,1,black,,,
,,,,,,,,,,,,,,,6,0,6,0,1,train41_vistrain1,2023-11-30_12h39.57.738,VisTraining,2021.2.3,MacIntel,60.0024001,,,,,,,,,1,"[1,1,2,2,2,4,1]",0.23,1,6,1,black,,,
,,,,,,,,,,,,,,,7,0,7,0,1,train41_vistrain1,2023-11-30_12h39.57.738,VisTraining,2021.2.3,MacIntel,60.0024001,,,,,,,,,2,"[2,1,1,2,2,4,1]",0.46,1,6,1,black,,,
,,,,,,,,,,,,,,,8,0,8,0,1,train41_vistrain1,2023-11-30_12h39.57.738,VisTraining,2021.2.3,MacIntel,60.0024001,,,,,,,,,1,"[2,1,1,2,2,4,1]",0.23,1,6,1,black,,,
,,,,,,,,,,,,,,,9,0,9,0,1,train41_vistrain1,2023-11-30_12h39.57.738,VisTraining,2021.2.3,MacIntel,60.0024001,,,,,,,,,1,"[2,1,1,2,2,4,1]",0.23,1,6,1,black,,,
,,,,,,,,,,,,,,,10,0,10,0,1,train41_vistrain1,2023-11-30_12h39.57.738,VisTraining,2021.2.3,MacIntel,60.0024001,,,,,,,,,2,"[2,1,1,2,2,4,1]",0.46,1,6,1,black,,,
,,,,,,,,,,,,,,,11,0,11,0,1,train41_vistrain1,2023-11-30_12h39.57.738,VisTraining,2021.2.3,MacIntel,60.0024001,,,,,,,,,2,"[2,1,1,2,2,4,1]",0.46,1,6,1,black,,,
,,,,,,,,,,,,,,,12,0,12,0,1,train41_vistrain1,2023-11-30_12h39.57.738,VisTraining,2021.2.3,MacIntel,60.0024001,,,,,,,,,4,"[2,1,1,2,2,4,1]",0.92,1,6,1,black,,,
,,,,,,,,,,,,,,,13,0,13,0,1,train41_vistrain1,2023-11-30_12h39.57.738,VisTraining,2021.2.3,MacIntel,60.0024001,,,,,,,,,1,"[2,1,1,2,2,4,1]",0.23,1,6,1,black,,,
,,,,,,,,,,,,,,,14,0,14,0,1,train41_vistrain1,2023-11-30_12h39.57.738,VisTraining,2021.2.3,MacIntel,60.0024001,,,,,,,,,2,"[2,1,1,2,2,4,1]",0.46,1,6,1,black,,,
,,,,,,,,,,,,,,,15,0,15,0,1,train41_vistrain1,2023-11-30_12h39.57.738,VisTraining,2021.2.3,MacIntel,60.0024001,,,,,,,,,1,"[2,1,1,2,2,4,1]",0.23,1,6,1,black,,,
,,,,,,,,,,,,,,,16,0,16,0,1,train41_vistrain1,2023-11-30_12h39.57.738,VisTraining,2021.2.3,MacIntel,60.0024001,,,,,,,,,1,"[2,1,1,2,2,4,1]",0.23,1,6,1,black,,,
,,,,,,,,,,,,,,,17,0,17,0,1,train41_vistrain1,2023-11-30_12h39.57.738,VisTraining,2021.2.3,MacIntel,60.0024001,,,,,,,,,2,"[2,1,1,2,2,4,1]",0.46,1,6,1,black,,,
,,,,,,,,,,,,,,,18,0,18,0,1,train41_vistrain1,2023-11-30_12h39.57.738,VisTraining,2021.2.3,MacIntel,60.0024001,,,,,,,,,2,"[2,1,1,2,2,4,1]",0.46,1,6,1,black,,,
,,,,,,,,,,,,,,,19,0,19,0,1,train41_vistrain1,2023-11-30_12h39.57.738,VisTraining,2021.2.3,MacIntel,60.0024001,,,,,,,,,4,"[2,1,1,2,2,4,1]",0.92,1,6,1,black,,,
,,,,,,,,,,,,,,,20,0,20,0,1,train41_vistrain1,2023-11-30_12h39.57.738,VisTraining,2021.2.3,MacIntel,60.0024001,,,,,,,,,1,"[2,1,1,2,2,4,1]",0.23,1,6,1,black,,,
,,,,,,,,,,,,,,,,,,,,train41_vistrain1,2023-11-30_12h39.57.738,VisTraining,2021.2.3,MacIntel,60.0024001,,,1,15,0,15,0,1,,,,,,,,0.9173,,
,,,,,,,,,,,,,,,0,0,0,0,1,train41_vistrain1,2023-11-30_12h39.57.738,VisTraining,2021.2.3,MacIntel,60.0024001,,,,,,,,,4,"[4,3,1,2,2,1]",0.92,1,5,3,black,,,
,,,,,,,,,,,,,,,1,0,1,0,1,train41_vistrain1,2023-11-30_12h39.57.738,VisTraining,2021.2.3,MacIntel,60.0024001,,,,,,,,,3,"[4,3,1,2,2,1]",0.69,1,5,3,black,,,
,,,,,,,,,,,,,,,2,0,2,0,1,train41_vistrain1,2023-11-30_12h39.57.738,VisTraining,2021.2.3,MacIntel,60.0024001,,,,,,,,,1,"[4,3,1,2,2,1]",0.23,1,5,3,black,,,
,,,,,,,,,,,,,,,3,0,3,0,1,train41_vistrain1,2023-11-30_12h39.57.738,VisTraining,2021.2.3,MacIntel,60.0024001,,,,,,,,,2,"[4,3,1,2,2,1]",0.46,1,5,3,black,,,
,,,,,,,,,,,,,,,4,0,4,0,1,train41_vistrain1,2023-11-30_12h39.57.738,VisTraining,2021.2.3,MacIntel,60.0024001,,,,,,,,,2,"[4,3,1,2,2,1]",0.46,1,5,3,black,,,
,,,,,,,,,,,,,,,5,0,5,0,1,train41_vistrain1,2023-11-30_12h39.57.738,VisTraining,2021.2.3,MacIntel,60.0024001,,,,,,,,,1,"[4,3,1,2,2,1]",0.23,1,5,3,black,,,
,,,,,,,,,,,,,,,6,0,6,0,1,train41_vistrain1,2023-11-30_12h39.57.738,VisTraining,2021.2.3,MacIntel,60.0024001,,,,,,,,,4,"[4,3,1,2,2,1]",0.92,1,5,3,black,,,
,,,,,,,,,,,,,,,7,0,7,0,1,train41_vistrain1,2023-11-30_12h39.57.738,VisTraining,2021.2.3,MacIntel,60.0024001,,,,,,,,,3,"[4,3,1,2,2,1]",0.69,1,5,3,black,,,
,,,,,,,,,,,,,,,8,0,8,0,1,train41_vistrain1,2023-11-30_12h39.57.738,VisTraining,2021.2.3,MacIntel,60.0024001,,,,,,,,,1,"[4,3,1,2,2,1]",0.23,1,5,3,black,,,
,,,,,,,,,,,,,,,9,0,9,0,1,train41_vistrain1,2023-11-30_12h39.57.738,VisTraining,2021.2.3,MacIntel,60.0024001,,,,,,,,,2,"[4,3,1,2,2,1]",0.46,1,5,3,black,,,
,,,,,,,,,,,,,,,10,0,10,0,1,train41_vistrain1,2023-11-30_12h39.57.738,VisTraining,2021.2.3,MacIntel,60.0024001,,,,,,,,,2,"[4,3,1,2,2,1]",0.46,1,5,3,black,,,
,,,,,,,,,,,,,,,11,0,11,0,1,train41_vistrain1,2023-11-30_12h39.57.738,VisTraining,2021.2.3,MacIntel,60.0024001,,,,,,,,,1,"[4,3,1,2,2,1]",0.23,1,5,3,black,,,
,,,,,,,,,,,,,,,12,0,12,0,1,train41_vistrain1,2023-11-30_12h39.57.738,VisTraining,2021.2.3,MacIntel,60.0024001,,,,,,,,,4,"[4,1,3,2,2,1]",0.92,1,5,3,black,,,
,,,,,,,,,,,,,,,13,0,13,0,1,train41_vistrain1,2023-11-30_12h39.57.738,VisTraining,2021.2.3,MacIntel,60.0024001,,,,,,,,,1,"[4,1,3,2,2,1]",0.23,1,5,3,black,,,
,,,,,,,,,,,,,,,14,0,14,0,1,train41_vistrain1,2023-11-30_12h39.57.738,VisTraining,2021.2.3,MacIntel,60.0024001,,,,,,,,,3,"[4,1,3,2,2,1]",0.69,1,5,3,black,,,
,,,,,,,,,,,,,,,15,0,15,0,1,train41_vistrain1,2023-11-30_12h39.57.738,VisTraining,2021.2.3,MacIntel,60.0024001,,,,,,,,,2,"[4,1,3,2,2,1]",0.46,1,5,3,black,,,
,,,,,,,,,,,,,,,16,0,16,0,1,train41_vistrain1,2023-11-30_12h39.57.738,VisTraining,2021.2.3,MacIntel,60.0024001,,,,,,,,,2,"[4,1,3,2,2,1]",0.46,1,5,3,black,,,
,,,,,,,,,,,,,,,17,0,17,0,1,train41_vistrain1,2023-11-30_12h39.57.738,VisTraining,2021.2.3,MacIntel,60.0024001,,,,,,,,,1,"[4,1,3,2,2,1]",0.23,1,5,3,black,,,
,,,,,,,,,,,,,,,,,,,,train41_vistrain1,2023-11-30_12h39.57.738,VisTraining,2021.2.3,MacIntel,60.0024001,,,3,16,0,16,0,1,,,,,,,,2.0088,,
,,,,,,,,,,,,,,,0,0,0,0,1,train41_vistrain1,2023-11-30_12h39.57.738,VisTraining,2021.2.3,MacIntel,60.0024001,,,,,,,,,1,"[1,1,2,3,1,1,3,1]",0.25,2,7,2,black,,,
,,,,,,,,,,,,,,,1,0,1,0,1,train41_vistrain1,2023-11-30_12h39.57.738,VisTraining,2021.2.3,MacIntel,60.0024001,,,,,,,,,1,"[1,1,2,3,1,1,3,1]",0.25,2,7,2,black,,,
,,,,,,,,,,,,,,,2,0,2,0,1,train41_vistrain1,2023-11-30_12h39.57.738,VisTraining,2021.2.3,MacIntel,60.0024001,,,,,,,,,2,"[1,1,2,3,1,1,3,1]",0.5,2,7,2,black,,,
,,,,,,,,,,,,,,,3,0,3,0,1,train41_vistrain1,2023-11-30_12h39.57.738,VisTraining,2021.2.3,MacIntel,60.0024001,,,,,,,,,3,"[1,1,2,3,1,1,3,1]",0.75,2,7,2,black,,,
,,,,,,,,,,,,,,,4,0,4,0,1,train41_vistrain1,2023-11-30_12h39.57.738,VisTraining,2021.2.3,MacIntel,60.0024001,,,,,,,,,1,"[1,1,2,3,1,1,3,1]",0.25,2,7,2,black,,,
,,,,,,,,,,,,,,,5,0,5,0,1,train41_vistrain1,2023-11-30_12h39.57.738,VisTraining,2021.2.3,MacIntel,60.0024001,,,,,,,,,1,"[1,1,2,3,1,1,3,1]",0.25,2,7,2,black,,,
,,,,,,,,,,,,,,,6,0,6,0,1,train41_vistrain1,2023-11-30_12h39.57.738,VisTraining,2021.2.3,MacIntel,60.0024001,,,,,,,,,3,"[1,1,2,3,1,1,3,1]",0.75,2,7,2,black,,,
,,,,,,,,,,,,,,,7,0,7,0,1,train41_vistrain1,2023-11-30_12h39.57.738,VisTraining,2021.2.3,MacIntel,60.0024001,,,,,,,,,1,"[1,1,2,3,1,1,3,1]",0.25,2,7,2,black,,,
,,,,,,,,,,,,,,,8,0,8,0,1,train41_vistrain1,2023-11-30_12h39.57.738,VisTraining,2021.2.3,MacIntel,60.0024001,,,,,,,,,1,"[1,1,2,3,1,3,1,1]",0.25,2,7,2,black,,,
,,,,,,,,,,,,,,,9,0,9,0,1,train41_vistrain1,2023-11-30_12h39.57.738,VisTraining,2021.2.3,MacIntel,60.0024001,,,,,,,,,1,"[1,1,2,3,1,3,1,1]",0.25,2,7,2,black,,,
,,,,,,,,,,,,,,,10,0,10,0,1,train41_vistrain1,2023-11-30_12h39.57.738,VisTraining,2021.2.3,MacIntel,60.0024001,,,,,,,,,2,"[1,1,2,3,1,3,1,1]",0.5,2,7,2,black,,,
,,,,,,,,,,,,,,,11,0,11,0,1,train41_vistrain1,2023-11-30_12h39.57.738,VisTraining,2021.2.3,MacIntel,60.0024001,,,,,,,,,3,"[1,1,2,3,1,3,1,1]",0.75,2,7,2,black,,,
,,,,,,,,,,,,,,,12,0,12,0,1,train41_vistrain1,2023-11-30_12h39.57.738,VisTraining,2021.2.3,MacIntel,60.0024001,,,,,,,,,1,"[1,1,2,3,1,3,1,1]",0.25,2,7,2,black,,,
,,,,,,,,,,,,,,,13,0,13,0,1,train41_vistrain1,2023-11-30_12h39.57.738,VisTraining,2021.2.3,MacIntel,60.0024001,,,,,,,,,3,"[1,1,2,3,1,3,1,1]",0.75,2,7,2,black,,,
,,,,,,,,,,,,,,,14,0,14,0,1,train41_vistrain1,2023-11-30_12h39.57.738,VisTraining,2021.2.3,MacIntel,60.0024001,,,,,,,,,1,"[1,1,2,3,1,3,1,1]",0.25,2,7,2,black,,,
,,,,,,,,,,,,,,,15,0,15,0,1,train41_vistrain1,2023-11-30_12h39.57.738,VisTraining,2021.2.3,MacIntel,60.0024001,,,,,,,,,1,"[1,1,2,3,1,3,1,1]",0.25,2,7,2,black,,,
,,,,,,,,,,,,,,,16,0,16,0,1,train41_vistrain1,2023-11-30_12h39.57.738,VisTraining,2021.2.3,MacIntel,60.0024001,,,,,,,,,1,"[1,1,2,3,1,1,3,1]",0.25,2,7,2,black,,,
,,,,,,,,,,,,,,,17,0,17,0,1,train41_vistrain1,2023-11-30_12h39.57.738,VisTraining,2021.2.3,MacIntel,60.0024001,,,,,,,,,1,"[1,1,2,3,1,1,3,1]",0.25,2,7,2,black,,,
,,,,,,,,,,,,,,,18,0,18,0,1,train41_vistrain1,2023-11-30_12h39.57.738,VisTraining,2021.2.3,MacIntel,60.0024001,,,,,,,,,2,"[1,1,2,3,1,1,3,1]",0.5,2,7,2,black,,,
,,,,,,,,,,,,,,,19,0,19,0,1,train41_vistrain1,2023-11-30_12h39.57.738,VisTraining,2021.2.3,MacIntel,60.0024001,,,,,,,,,3,"[1,1,2,3,1,1,3,1]",0.75,2,7,2,black,,,
,,,,,,,,,,,,,,,20,0,20,0,1,train41_vistrain1,2023-11-30_12h39.57.738,VisTraining,2021.2.3,MacIntel,60.0024001,,,,,,,,,1,"[1,1,2,3,1,1,3,1]",0.25,2,7,2,black,,,
,,,,,,,,,,,,,,,21,0,21,0,1,train41_vistrain1,2023-11-30_12h39.57.738,VisTraining,2021.2.3,MacIntel,60.0024001,,,,,,,,,1,"[1,1,2,3,1,1,3,1]",0.25,2,7,2,black,,,
,,,,,,,,,,,,,,,22,0,22,0,1,train41_vistrain1,2023-11-30_12h39.57.738,VisTraining,2021.2.3,MacIntel,60.0024001,,,,,,,,,3,"[1,1,2,3,1,1,3,1]",0.75,2,7,2,black,,,
,,,,,,,,,,,,,,,23,0,23,0,1,train41_vistrain1,2023-11-30_12h39.57.738,VisTraining,2021.2.3,MacIntel,60.0024001,,,,,,,,,1,"[1,1,2,3,1,1,3,1]",0.25,2,7,2,black,,,
,,,,,,,,,,,,,,,,,,,,train41_vistrain1,2023-11-30_12h39.57.738,VisTraining,2021.2.3,MacIntel,60.0024001,,,2,17,0,17,0,1,,,,,,,,5.0229,,
,,,,,,,,,,,,,,,0,0,0,0,1,train41_vistrain1,2023-11-30_12h39.57.738,VisTraining,2021.2.3,MacIntel,60.0024001,,,,,,,,,2,"[2,2,1,1,1,1,4,1]",0.54,3,7,3,black,,,
,,,,,,,,,,,,,,,1,0,1,0,1,train41_vistrain1,2023-11-30_12h39.57.738,VisTraining,2021.2.3,MacIntel,60.0024001,,,,,,,,,2,"[2,2,1,1,1,1,4,1]",0.54,3,7,3,black,,,
,,,,,,,,,,,,,,,2,0,2,0,1,train41_vistrain1,2023-11-30_12h39.57.738,VisTraining,2021.2.3,MacIntel,60.0024001,,,,,,,,,1,"[2,2,1,1,1,1,4,1]",0.27,3,7,3,black,,,
,,,,,,,,,,,,,,,3,0,3,0,1,train41_vistrain1,2023-11-30_12h39.57.738,VisTraining,2021.2.3,MacIntel,60.0024001,,,,,,,,,1,"[2,2,1,1,1,1,4,1]",0.27,3,7,3,black,,,
,,,,,,,,,,,,,,,4,0,4,0,1,train41_vistrain1,2023-11-30_12h39.57.738,VisTraining,2021.2.3,MacIntel,60.0024001,,,,,,,,,1,"[2,2,1,1,1,1,4,1]",0.27,3,7,3,black,,,
,,,,,,,,,,,,,,,5,0,5,0,1,train41_vistrain1,2023-11-30_12h39.57.738,VisTraining,2021.2.3,MacIntel,60.0024001,,,,,,,,,1,"[2,2,1,1,1,1,4,1]",0.27,3,7,3,black,,,
,,,,,,,,,,,,,,,6,0,6,0,1,train41_vistrain1,2023-11-30_12h39.57.738,VisTraining,2021.2.3,MacIntel,60.0024001,,,,,,,,,4,"[2,2,1,1,1,1,4,1]",1.08,3,7,3,black,,,
,,,,,,,,,,,,,,,7,0,7,0,1,train41_vistrain1,2023-11-30_12h39.57.738,VisTraining,2021.2.3,MacIntel,60.0024001,,,,,,,,,1,"[2,2,1,1,1,1,4,1]",0.27,3,7,3,black,,,
,,,,,,,,,,,,,,,8,0,8,0,1,train41_vistrain1,2023-11-30_12h39.57.738,VisTraining,2021.2.3,MacIntel,60.0024001,,,,,,,,,2,"[2,2,1,1,1,1,4,1]",0.54,3,7,3,black,,,
,,,,,,,,,,,,,,,9,0,9,0,1,train41_vistrain1,2023-11-30_12h39.57.738,VisTraining,2021.2.3,MacIntel,60.0024001,,,,,,,,,2,"[2,2,1,1,1,1,4,1]",0.54,3,7,3,black,,,
,,,,,,,,,,,,,,,10,0,10,0,1,train41_vistrain1,2023-11-30_12h39.57.738,VisTraining,2021.2.3,MacIntel,60.0024001,,,,,,,,,1,"[2,2,1,1,1,1,4,1]",0.27,3,7,3,black,,,
,,,,,,,,,,,,,,,11,0,11,0,1,train41_vistrain1,2023-11-30_12h39.57.738,VisTraining,2021.2.3,MacIntel,60.0024001,,,,,,,,,1,"[2,2,1,1,1,1,4,1]",0.27,3,7,3,black,,,
,,,,,,,,,,,,,,,12,0,12,0,1,train41_vistrain1,2023-11-30_12h39.57.738,VisTraining,2021.2.3,MacIntel,60.0024001,,,,,,,,,1,"[2,2,1,1,1,1,4,1]",0.27,3,7,3,black,,,
,,,,,,,,,,,,,,,13,0,13,0,1,train41_vistrain1,2023-11-30_12h39.57.738,VisTraining,2021.2.3,MacIntel,60.0024001,,,,,,,,,1,"[2,2,1,1,1,1,4,1]",0.27,3,7,3,black,,,
,,,,,,,,,,,,,,,14,0,14,0,1,train41_vistrain1,2023-11-30_12h39.57.738,VisTraining,2021.2.3,MacIntel,60.0024001,,,,,,,,,4,"[2,2,1,1,1,1,4,1]",1.08,3,7,3,black,,,
,,,,,,,,,,,,,,,15,0,15,0,1,train41_vistrain1,2023-11-30_12h39.57.738,VisTraining,2021.2.3,MacIntel,60.0024001,,,,,,,,,1,"[2,2,1,1,1,1,4,1]",0.27,3,7,3,black,,,
,,,,,,,,,,,,,,,16,0,16,0,1,train41_vistrain1,2023-11-30_12h39.57.738,VisTraining,2021.2.3,MacIntel,60.0024001,,,,,,,,,2,"[2,1,1,2,1,1,4,1]",0.54,3,7,3,black,,,
,,,,,,,,,,,,,,,17,0,17,0,1,train41_vistrain1,2023-11-30_12h39.57.738,VisTraining,2021.2.3,MacIntel,60.0024001,,,,,,,,,1,"[2,1,1,2,1,1,4,1]",0.27,3,7,3,black,,,
,,,,,,,,,,,,,,,18,0,18,0,1,train41_vistrain1,2023-11-30_12h39.57.738,VisTraining,2021.2.3,MacIntel,60.0024001,,,,,,,,,1,"[2,1,1,2,1,1,4,1]",0.27,3,7,3,black,,,
,,,,,,,,,,,,,,,19,0,19,0,1,train41_vistrain1,2023-11-30_12h39.57.738,VisTraining,2021.2.3,MacIntel,60.0024001,,,,,,,,,2,"[2,1,1,2,1,1,4,1]",0.54,3,7,3,black,,,
,,,,,,,,,,,,,,,20,0,20,0,1,train41_vistrain1,2023-11-30_12h39.57.738,VisTraining,2021.2.3,MacIntel,60.0024001,,,,,,,,,1,"[2,1,1,2,1,1,4,1]",0.27,3,7,3,black,,,
,,,,,,,,,,,,,,,21,0,21,0,1,train41_vistrain1,2023-11-30_12h39.57.738,VisTraining,2021.2.3,MacIntel,60.0024001,,,,,,,,,1,"[2,1,1,2,1,1,4,1]",0.27,3,7,3,black,,,
,,,,,,,,,,,,,,,22,0,22,0,1,train41_vistrain1,2023-11-30_12h39.57.738,VisTraining,2021.2.3,MacIntel,60.0024001,,,,,,,,,4,"[2,1,1,2,1,1,4,1]",1.08,3,7,3,black,,,
,,,,,,,,,,,,,,,23,0,23,0,1,train41_vistrain1,2023-11-30_12h39.57.738,VisTraining,2021.2.3,MacIntel,60.0024001,,,,,,,,,1,"[2,1,1,2,1,1,4,1]",0.27,3,7,3,black,,,
,,,,,,,,,,,,,,,,,,,,train41_vistrain1,2023-11-30_12h39.57.738,VisTraining,2021.2.3,MacIntel,60.0024001,,,1,18,0,18,0,1,,,,,,,,1.9209,,
,,,,,,,,,,,,,,,0,0,0,0,1,train41_vistrain1,2023-11-30_12h39.57.738,VisTraining,2021.2.3,MacIntel,60.0024001,,,,,,,,,4,"[4,1,1,1,1,3,1,1]",0.92,1,7,2,black,,,
,,,,,,,,,,,,,,,1,0,1,0,1,train41_vistrain1,2023-11-30_12h39.57.738,VisTraining,2021.2.3,MacIntel,60.0024001,,,,,,,,,1,"[4,1,1,1,1,3,1,1]",0.23,1,7,2,black,,,
,,,,,,,,,,,,,,,2,0,2,0,1,train41_vistrain1,2023-11-30_12h39.57.738,VisTraining,2021.2.3,MacIntel,60.0024001,,,,,,,,,1,"[4,1,1,1,1,3,1,1]",0.23,1,7,2,black,,,
,,,,,,,,,,,,,,,3,0,3,0,1,train41_vistrain1,2023-11-30_12h39.57.738,VisTraining,2021.2.3,MacIntel,60.0024001,,,,,,,,,1,"[4,1,1,1,1,3,1,1]",0.23,1,7,2,black,,,
,,,,,,,,,,,,,,,4,0,4,0,1,train41_vistrain1,2023-11-30_12h39.57.738,VisTraining,2021.2.3,MacIntel,60.0024001,,,,,,,,,1,"[4,1,1,1,1,3,1,1]",0.23,1,7,2,black,,,
,,,,,,,,,,,,,,,5,0,5,0,1,train41_vistrain1,2023-11-30_12h39.57.738,VisTraining,2021.2.3,MacIntel,60.0024001,,,,,,,,,3,"[4,1,1,1,1,3,1,1]",0.69,1,7,2,black,,,
,,,,,,,,,,,,,,,6,0,6,0,1,train41_vistrain1,2023-11-30_12h39.57.738,VisTraining,2021.2.3,MacIntel,60.0024001,,,,,,,,,1,"[4,1,1,1,1,3,1,1]",0.23,1,7,2,black,,,
,,,,,,,,,,,,,,,7,0,7,0,1,train41_vistrain1,2023-11-30_12h39.57.738,VisTraining,2021.2.3,MacIntel,60.0024001,,,,,,,,,1,"[4,1,1,1,1,3,1,1]",0.23,1,7,2,black,,,
,,,,,,,,,,,,,,,8,0,8,0,1,train41_vistrain1,2023-11-30_12h39.57.738,VisTraining,2021.2.3,MacIntel,60.0024001,,,,,,,,,4,"[4,1,1,1,1,1,3,1]",0.92,1,7,2,black,,,
,,,,,,,,,,,,,,,9,0,9,0,1,train41_vistrain1,2023-11-30_12h39.57.738,VisTraining,2021.2.3,MacIntel,60.0024001,,,,,,,,,1,"[4,1,1,1,1,1,3,1]",0.23,1,7,2,black,,,
,,,,,,,,,,,,,,,10,0,10,0,1,train41_vistrain1,2023-11-30_12h39.57.738,VisTraining,2021.2.3,MacIntel,60.0024001,,,,,,,,,1,"[4,1,1,1,1,1,3,1]",0.23,1,7,2,black,,,
,,,,,,,,,,,,,,,11,0,11,0,1,train41_vistrain1,2023-11-30_12h39.57.738,VisTraining,2021.2.3,MacIntel,60.0024001,,,,,,,,,1,"[4,1,1,1,1,1,3,1]",0.23,1,7,2,black,,,
,,,,,,,,,,,,,,,12,0,12,0,1,train41_vistrain1,2023-11-30_12h39.57.738,VisTraining,2021.2.3,MacIntel,60.0024001,,,,,,,,,1,"[4,1,1,1,1,1,3,1]",0.23,1,7,2,black,,,
,,,,,,,,,,,,,,,13,0,13,0,1,train41_vistrain1,2023-11-30_12h39.57.738,VisTraining,2021.2.3,MacIntel,60.0024001,,,,,,,,,1,"[4,1,1,1,1,1,3,1]",0.23,1,7,2,black,,,
,,,,,,,,,,,,,,,14,0,14,0,1,train41_vistrain1,2023-11-30_12h39.57.738,VisTraining,2021.2.3,MacIntel,60.0024001,,,,,,,,,3,"[4,1,1,1,1,1,3,1]",0.69,1,7,2,black,,,
,,,,,,,,,,,,,,,15,0,15,0,1,train41_vistrain1,2023-11-30_12h39.57.738,VisTraining,2021.2.3,MacIntel,60.0024001,,,,,,,,,1,"[4,1,1,1,1,1,3,1]",0.23,1,7,2,black,,,
,,,,,,,,,,,,,,,16,0,16,0,1,train41_vistrain1,2023-11-30_12h39.57.738,VisTraining,2021.2.3,MacIntel,60.0024001,,,,,,,,,4,"[4,1,1,1,1,3,1,1]",0.92,1,7,2,black,,,
,,,,,,,,,,,,,,,17,0,17,0,1,train41_vistrain1,2023-11-30_12h39.57.738,VisTraining,2021.2.3,MacIntel,60.0024001,,,,,,,,,1,"[4,1,1,1,1,3,1,1]",0.23,1,7,2,black,,,
,,,,,,,,,,,,,,,18,0,18,0,1,train41_vistrain1,2023-11-30_12h39.57.738,VisTraining,2021.2.3,MacIntel,60.0024001,,,,,,,,,1,"[4,1,1,1,1,3,1,1]",0.23,1,7,2,black,,,
,,,,,,,,,,,,,,,19,0,19,0,1,train41_vistrain1,2023-11-30_12h39.57.738,VisTraining,2021.2.3,MacIntel,60.0024001,,,,,,,,,1,"[4,1,1,1,1,3,1,1]",0.23,1,7,2,black,,,
,,,,,,,,,,,,,,,20,0,20,0,1,train41_vistrain1,2023-11-30_12h39.57.738,VisTraining,2021.2.3,MacIntel,60.0024001,,,,,,,,,1,"[4,1,1,1,1,3,1,1]",0.23,1,7,2,black,,,
,,,,,,,,,,,,,,,21,0,21,0,1,train41_vistrain1,2023-11-30_12h39.57.738,VisTraining,2021.2.3,MacIntel,60.0024001,,,,,,,,,3,"[4,1,1,1,1,3,1,1]",0.69,1,7,2,black,,,
,,,,,,,,,,,,,,,22,0,22,0,1,train41_vistrain1,2023-11-30_12h39.57.738,VisTraining,2021.2.3,MacIntel,60.0024001,,,,,,,,,1,"[4,1,1,1,1,3,1,1]",0.23,1,7,2,black,,,
,,,,,,,,,,,,,,,23,0,23,0,1,train41_vistrain1,2023-11-30_12h39.57.738,VisTraining,2021.2.3,MacIntel,60.0024001,,,,,,,,,1,"[4,1,1,1,1,3,1,1]",0.23,1,7,2,black,,,
,,,,,,,,,,,,,,,,,,,,train41_vistrain1,2023-11-30_12h39.57.738,VisTraining,2021.2.3,MacIntel,60.0024001,,,1,19,0,19,0,1,,,,,,,,0.179,,
,,,,,,,,,,,,,,,0,0,0,0,1,train41_vistrain1,2023-11-30_12h39.57.738,VisTraining,2021.2.3,MacIntel,60.0024001,,,,,,,,,2,"[2,1,1,3,1,1,3,1]",0.46,1,7,2,black,,,
,,,,,,,,,,,,,,,1,0,1,0,1,train41_vistrain1,2023-11-30_12h39.57.738,VisTraining,2021.2.3,MacIntel,60.0024001,,,,,,,,,1,"[2,1,1,3,1,1,3,1]",0.23,1,7,2,black,,,
,,,,,,,,,,,,,,,2,0,2,0,1,train41_vistrain1,2023-11-30_12h39.57.738,VisTraining,2021.2.3,MacIntel,60.0024001,,,,,,,,,1,"[2,1,1,3,1,1,3,1]",0.23,1,7,2,black,,,
,,,,,,,,,,,,,,,3,0,3,0,1,train41_vistrain1,2023-11-30_12h39.57.738,VisTraining,2021.2.3,MacIntel,60.0024001,,,,,,,,,3,"[2,1,1,3,1,1,3,1]",0.69,1,7,2,black,,,
,,,,,,,,,,,,,,,4,0,4,0,1,train41_vistrain1,2023-11-30_12h39.57.738,VisTraining,2021.2.3,MacIntel,60.0024001,,,,,,,,,1,"[2,1,1,3,1,1,3,1]",0.23,1,7,2,black,,,
,,,,,,,,,,,,,,,5,0,5,0,1,train41_vistrain1,2023-11-30_12h39.57.738,VisTraining,2021.2.3,MacIntel,60.0024001,,,,,,,,,1,"[2,1,1,3,1,1,3,1]",0.23,1,7,2,black,,,
,,,,,,,,,,,,,,,6,0,6,0,1,train41_vistrain1,2023-11-30_12h39.57.738,VisTraining,2021.2.3,MacIntel,60.0024001,,,,,,,,,3,"[2,1,1,3,1,1,3,1]",0.69,1,7,2,black,,,
,,,,,,,,,,,,,,,7,0,7,0,1,train41_vistrain1,2023-11-30_12h39.57.738,VisTraining,2021.2.3,MacIntel,60.0024001,,,,,,,,,1,"[2,1,1,3,1,1,3,1]",0.23,1,7,2,black,,,
,,,,,,,,,,,,,,,8,0,8,0,1,train41_vistrain1,2023-11-30_12h39.57.738,VisTraining,2021.2.3,MacIntel,60.0024001,,,,,,,,,2,"[2,1,1,3,1,3,1,1]",0.46,1,7,2,black,,,
,,,,,,,,,,,,,,,9,0,9,0,1,train41_vistrain1,2023-11-30_12h39.57.738,VisTraining,2021.2.3,MacIntel,60.0024001,,,,,,,,,1,"[2,1,1,3,1,3,1,1]",0.23,1,7,2,black,,,
,,,,,,,,,,,,,,,10,0,10,0,1,train41_vistrain1,2023-11-30_12h39.57.738,VisTraining,2021.2.3,MacIntel,60.0024001,,,,,,,,,1,"[2,1,1,3,1,3,1,1]",0.23,1,7,2,black,,,
,,,,,,,,,,,,,,,11,0,11,0,1,train41_vistrain1,2023-11-30_12h39.57.738,VisTraining,2021.2.3,MacIntel,60.0024001,,,,,,,,,3,"[2,1,1,3,1,3,1,1]",0.69,1,7,2,black,,,
,,,,,,,,,,,,,,,12,0,12,0,1,train41_vistrain1,2023-11-30_12h39.57.738,VisTraining,2021.2.3,MacIntel,60.0024001,,,,,,,,,1,"[2,1,1,3,1,3,1,1]",0.23,1,7,2,black,,,
,,,,,,,,,,,,,,,13,0,13,0,1,train41_vistrain1,2023-11-30_12h39.57.738,VisTraining,2021.2.3,MacIntel,60.0024001,,,,,,,,,3,"[2,1,1,3,1,3,1,1]",0.69,1,7,2,black,,,
,,,,,,,,,,,,,,,14,0,14,0,1,train41_vistrain1,2023-11-30_12h39.57.738,VisTraining,2021.2.3,MacIntel,60.0024001,,,,,,,,,1,"[2,1,1,3,1,3,1,1]",0.23,1,7,2,black,,,
,,,,,,,,,,,,,,,15,0,15,0,1,train41_vistrain1,2023-11-30_12h39.57.738,VisTraining,2021.2.3,MacIntel,60.0024001,,,,,,,,,1,"[2,1,1,3,1,3,1,1]",0.23,1,7,2,black,,,
,,,,,,,,,,,,,,,16,0,16,0,1,train41_vistrain1,2023-11-30_12h39.57.738,VisTraining,2021.2.3,MacIntel,60.0024001,,,,,,,,,2,"[2,1,1,3,1,1,3,1]",0.46,1,7,2,black,,,
,,,,,,,,,,,,,,,17,0,17,0,1,train41_vistrain1,2023-11-30_12h39.57.738,VisTraining,2021.2.3,MacIntel,60.0024001,,,,,,,,,1,"[2,1,1,3,1,1,3,1]",0.23,1,7,2,black,,,
,,,,,,,,,,,,,,,18,0,18,0,1,train41_vistrain1,2023-11-30_12h39.57.738,VisTraining,2021.2.3,MacIntel,60.0024001,,,,,,,,,1,"[2,1,1,3,1,1,3,1]",0.23,1,7,2,black,,,
,,,,,,,,,,,,,,,19,0,19,0,1,train41_vistrain1,2023-11-30_12h39.57.738,VisTraining,2021.2.3,MacIntel,60.0024001,,,,,,,,,3,"[2,1,1,3,1,1,3,1]",0.69,1,7,2,black,,,
,,,,,,,,,,,,,,,20,0,20,0,1,train41_vistrain1,2023-11-30_12h39.57.738,VisTraining,2021.2.3,MacIntel,60.0024001,,,,,,,,,1,"[2,1,1,3,1,1,3,1]",0.23,1,7,2,black,,,
,,,,,,,,,,,,,,,21,0,21,0,1,train41_vistrain1,2023-11-30_12h39.57.738,VisTraining,2021.2.3,MacIntel,60.0024001,,,,,,,,,1,"[2,1,1,3,1,1,3,1]",0.23,1,7,2,black,,,
,,,,,,,,,,,,,,,22,0,22,0,1,train41_vistrain1,2023-11-30_12h39.57.738,VisTraining,2021.2.3,MacIntel,60.0024001,,,,,,,,,3,"[2,1,1,3,1,1,3,1]",0.69,1,7,2,black,,,
,,,,,,,,,,,,,,,23,0,23,0,1,train41_vistrain1,2023-11-30_12h39.57.738,VisTraining,2021.2.3,MacIntel,60.0024001,,,,,,,,,1,"[2,1,1,3,1,1,3,1]",0.23,1,7,2,black,,,
,,,,,,,,,,,,,,,,,,,,train41_vistrain1,2023-11-30_12h39.57.738,VisTraining,2021.2.3,MacIntel,60.0024001,,,1,20,0,20,0,1,,,,,,,,0.4215,,
,,,,,,,,,,,,,,,0,0,0,0,1,train41_vistrain1,2023-11-30_12h39.57.738,VisTraining,2021.2.3,MacIntel,60.0024001,,,,,,,,,4,"[4,2,1,1,2,1,1,1]",0.92,1,7,1,black,,,
,,,,,,,,,,,,,,,1,0,1,0,1,train41_vistrain1,2023-11-30_12h39.57.738,VisTraining,2021.2.3,MacIntel,60.0024001,,,,,,,,,2,"[4,2,1,1,2,1,1,1]",0.46,1,7,1,black,,,
,,,,,,,,,,,,,,,2,0,2,0,1,train41_vistrain1,2023-11-30_12h39.57.738,VisTraining,2021.2.3,MacIntel,60.0024001,,,,,,,,,1,"[4,2,1,1,2,1,1,1]",0.23,1,7,1,black,,,
,,,,,,,,,,,,,,,3,0,3,0,1,train41_vistrain1,2023-11-30_12h39.57.738,VisTraining,2021.2.3,MacIntel,60.0024001,,,,,,,,,1,"[4,2,1,1,2,1,1,1]",0.23,1,7,1,black,,,
,,,,,,,,,,,,,,,4,0,4,0,1,train41_vistrain1,2023-11-30_12h39.57.738,VisTraining,2021.2.3,MacIntel,60.0024001,,,,,,,,,2,"[4,2,1,1,2,1,1,1]",0.46,1,7,1,black,,,
,,,,,,,,,,,,,,,5,0,5,0,1,train41_vistrain1,2023-11-30_12h39.57.738,VisTraining,2021.2.3,MacIntel,60.0024001,,,,,,,,,1,"[4,2,1,1,2,1,1,1]",0.23,1,7,1,black,,,
,,,,,,,,,,,,,,,6,0,6,0,1,train41_vistrain1,2023-11-30_12h39.57.738,VisTraining,2021.2.3,MacIntel,60.0024001,,,,,,,,,1,"[4,2,1,1,2,1,1,1]",0.23,1,7,1,black,,,
,,,,,,,,,,,,,,,7,0,7,0,1,train41_vistrain1,2023-11-30_12h39.57.738,VisTraining,2021.2.3,MacIntel,60.0024001,,,,,,,,,1,"[4,2,1,1,2,1,1,1]",0.23,1,7,1,black,,,
,,,,,,,,,,,,,,,8,0,8,0,1,train41_vistrain1,2023-11-30_12h39.57.738,VisTraining,2021.2.3,MacIntel,60.0024001,,,,,,,,,4,"[4,2,2,1,1,1,1,1]",0.92,1,7,1,black,,,
,,,,,,,,,,,,,,,9,0,9,0,1,train41_vistrain1,2023-11-30_12h39.57.738,VisTraining,2021.2.3,MacIntel,60.0024001,,,,,,,,,2,"[4,2,2,1,1,1,1,1]",0.46,1,7,1,black,,,
,,,,,,,,,,,,,,,10,0,10,0,1,train41_vistrain1,2023-11-30_12h39.57.738,VisTraining,2021.2.3,MacIntel,60.0024001,,,,,,,,,2,"[4,2,2,1,1,1,1,1]",0.46,1,7,1,black,,,
,,,,,,,,,,,,,,,11,0,11,0,1,train41_vistrain1,2023-11-30_12h39.57.738,VisTraining,2021.2.3,MacIntel,60.0024001,,,,,,,,,1,"[4,2,2,1,1,1,1,1]",0.23,1,7,1,black,,,
,,,,,,,,,,,,,,,12,0,12,0,1,train41_vistrain1,2023-11-30_12h39.57.738,VisTraining,2021.2.3,MacIntel,60.0024001,,,,,,,,,1,"[4,2,2,1,1,1,1,1]",0.23,1,7,1,black,,,
,,,,,,,,,,,,,,,13,0,13,0,1,train41_vistrain1,2023-11-30_12h39.57.738,VisTraining,2021.2.3,MacIntel,60.0024001,,,,,,,,,1,"[4,2,2,1,1,1,1,1]",0.23,1,7,1,black,,,
,,,,,,,,,,,,,,,14,0,14,0,1,train41_vistrain1,2023-11-30_12h39.57.738,VisTraining,2021.2.3,MacIntel,60.0024001,,,,,,,,,1,"[4,2,2,1,1,1,1,1]",0.23,1,7,1,black,,,
,,,,,,,,,,,,,,,15,0,15,0,1,train41_vistrain1,2023-11-30_12h39.57.738,VisTraining,2021.2.3,MacIntel,60.0024001,,,,,,,,,1,"[4,2,2,1,1,1,1,1]",0.23,1,7,1,black,,,
,,,,,,,,,,,,,,,16,0,16,0,1,train41_vistrain1,2023-11-30_12h39.57.738,VisTraining,2021.2.3,MacIntel,60.0024001,,,,,,,,,4,"[4,2,2,1,1,1,1,1]",0.92,1,7,1,black,,,
,,,,,,,,,,,,,,,17,0,17,0,1,train41_vistrain1,2023-11-30_12h39.57.738,VisTraining,2021.2.3,MacIntel,60.0024001,,,,,,,,,2,"[4,2,2,1,1,1,1,1]",0.46,1,7,1,black,,,
,,,,,,,,,,,,,,,18,0,18,0,1,train41_vistrain1,2023-11-30_12h39.57.738,VisTraining,2021.2.3,MacIntel,60.0024001,,,,,,,,,2,"[4,2,2,1,1,1,1,1]",0.46,1,7,1,black,,,
,,,,,,,,,,,,,,,19,0,19,0,1,train41_vistrain1,2023-11-30_12h39.57.738,VisTraining,2021.2.3,MacIntel,60.0024001,,,,,,,,,1,"[4,2,2,1,1,1,1,1]",0.23,1,7,1,black,,,
,,,,,,,,,,,,,,,20,0,20,0,1,train41_vistrain1,2023-11-30_12h39.57.738,VisTraining,2021.2.3,MacIntel,60.0024001,,,,,,,,,1,"[4,2,2,1,1,1,1,1]",0.23,1,7,1,black,,,
,,,,,,,,,,,,,,,21,0,21,0,1,train41_vistrain1,2023-11-30_12h39.57.738,VisTraining,2021.2.3,MacIntel,60.0024001,,,,,,,,,1,"[4,2,2,1,1,1,1,1]",0.23,1,7,1,black,,,
,,,,,,,,,,,,,,,22,0,22,0,1,train41_vistrain1,2023-11-30_12h39.57.738,VisTraining,2021.2.3,MacIntel,60.0024001,,,,,,,,,1,"[4,2,2,1,1,1,1,1]",0.23,1,7,1,black,,,
,,,,,,,,,,,,,,,23,0,23,0,1,train41_vistrain1,2023-11-30_12h39.57.738,VisTraining,2021.2.3,MacIntel,60.0024001,,,,,,,,,1,"[4,2,2,1,1,1,1,1]",0.23,1,7,1,black,,,
,,,,,,,,,,,,,,,,,,,,train41_vistrain1,2023-11-30_12h39.57.738,VisTraining,2021.2.3,MacIntel,60.0024001,,,1,21,0,21,0,1,,,,,,,,0.4531,,
,,,,,,,,,,,,,,,0,0,0,0,1,train41_vistrain1,2023-11-30_12h39.57.738,VisTraining,2021.2.3,MacIntel,60.0024001,,,,,,,,,1,"[1,1,2,3,1,4,1]",0.25,2,6,2,black,,,
,,,,,,,,,,,,,,,1,0,1,0,1,train41_vistrain1,2023-11-30_12h39.57.738,VisTraining,2021.2.3,MacIntel,60.0024001,,,,,,,,,1,"[1,1,2,3,1,4,1]",0.25,2,6,2,black,,,
,,,,,,,,,,,,,,,2,0,2,0,1,train41_vistrain1,2023-11-30_12h39.57.738,VisTraining,2021.2.3,MacIntel,60.0024001,,,,,,,,,2,"[1,1,2,3,1,4,1]",0.5,2,6,2,black,,,
,,,,,,,,,,,,,,,3,0,3,0,1,train41_vistrain1,2023-11-30_12h39.57.738,VisTraining,2021.2.3,MacIntel,60.0024001,,,,,,,,,3,"[1,1,2,3,1,4,1]",0.75,2,6,2,black,,,
,,,,,,,,,,,,,,,4,0,4,0,1,train41_vistrain1,2023-11-30_12h39.57.738,VisTraining,2021.2.3,MacIntel,60.0024001,,,,,,,,,1,"[1,1,2,3,1,4,1]",0.25,2,6,2,black,,,
,,,,,,,,,,,,,,,5,0,5,0,1,train41_vistrain1,2023-11-30_12h39.57.738,VisTraining,2021.2.3,MacIntel,60.0024001,,,,,,,,,4,"[1,1,2,3,1,4,1]",1,2,6,2,black,,,
,,,,,,,,,,,,,,,6,0,6,0,1,train41_vistrain1,2023-11-30_12h39.57.738,VisTraining,2021.2.3,MacIntel,60.0024001,,,,,,,,,1,"[1,1,2,3,1,4,1]",0.25,2,6,2,black,,,
,,,,,,,,,,,,,,,7,0,7,0,1,train41_vistrain1,2023-11-30_12h39.57.738,VisTraining,2021.2.3,MacIntel,60.0024001,,,,,,,,,1,"[1,1,2,1,3,4,1]",0.25,2,6,2,black,,,
,,,,,,,,,,,,,,,8,0,8,0,1,train41_vistrain1,2023-11-30_12h39.57.738,VisTraining,2021.2.3,MacIntel,60.0024001,,,,,,,,,1,"[1,1,2,1,3,4,1]",0.25,2,6,2,black,,,
,,,,,,,,,,,,,,,9,0,9,0,1,train41_vistrain1,2023-11-30_12h39.57.738,VisTraining,2021.2.3,MacIntel,60.0024001,,,,,,,,,2,"[1,1,2,1,3,4,1]",0.5,2,6,2,black,,,
,,,,,,,,,,,,,,,10,0,10,0,1,train41_vistrain1,2023-11-30_12h39.57.738,VisTraining,2021.2.3,MacIntel,60.0024001,,,,,,,,,1,"[1,1,2,1,3,4,1]",0.25,2,6,2,black,,,
,,,,,,,,,,,,,,,11,0,11,0,1,train41_vistrain1,2023-11-30_12h39.57.738,VisTraining,2021.2.3,MacIntel,60.0024001,,,,,,,,,3,"[1,1,2,1,3,4,1]",0.75,2,6,2,black,,,
,,,,,,,,,,,,,,,12,0,12,0,1,train41_vistrain1,2023-11-30_12h39.57.738,VisTraining,2021.2.3,MacIntel,60.0024001,,,,,,,,,4,"[1,1,2,1,3,4,1]",1,2,6,2,black,,,
,,,,,,,,,,,,,,,13,0,13,0,1,train41_vistrain1,2023-11-30_12h39.57.738,VisTraining,2021.2.3,MacIntel,60.0024001,,,,,,,,,1,"[1,1,2,1,3,4,1]",0.25,2,6,2,black,,,
,,,,,,,,,,,,,,,14,0,14,0,1,train41_vistrain1,2023-11-30_12h39.57.738,VisTraining,2021.2.3,MacIntel,60.0024001,,,,,,,,,1,"[1,1,2,3,1,4,1]",0.25,2,6,2,black,,,
,,,,,,,,,,,,,,,15,0,15,0,1,train41_vistrain1,2023-11-30_12h39.57.738,VisTraining,2021.2.3,MacIntel,60.0024001,,,,,,,,,1,"[1,1,2,3,1,4,1]",0.25,2,6,2,black,,,
,,,,,,,,,,,,,,,16,0,16,0,1,train41_vistrain1,2023-11-30_12h39.57.738,VisTraining,2021.2.3,MacIntel,60.0024001,,,,,,,,,2,"[1,1,2,3,1,4,1]",0.5,2,6,2,black,,,
,,,,,,,,,,,,,,,17,0,17,0,1,train41_vistrain1,2023-11-30_12h39.57.738,VisTraining,2021.2.3,MacIntel,60.0024001,,,,,,,,,3,"[1,1,2,3,1,4,1]",0.75,2,6,2,black,,,
,,,,,,,,,,,,,,,18,0,18,0,1,train41_vistrain1,2023-11-30_12h39.57.738,VisTraining,2021.2.3,MacIntel,60.0024001,,,,,,,,,1,"[1,1,2,3,1,4,1]",0.25,2,6,2,black,,,
,,,,,,,,,,,,,,,19,0,19,0,1,train41_vistrain1,2023-11-30_12h39.57.738,VisTraining,2021.2.3,MacIntel,60.0024001,,,,,,,,,4,"[1,1,2,3,1,4,1]",1,2,6,2,black,,,
,,,,,,,,,,,,,,,20,0,20,0,1,train41_vistrain1,2023-11-30_12h39.57.738,VisTraining,2021.2.3,MacIntel,60.0024001,,,,,,,,,1,"[1,1,2,3,1,4,1]",0.25,2,6,2,black,,,
,,,,,,,,,,,,,,,,,,,,train41_vistrain1,2023-11-30_12h39.57.738,VisTraining,2021.2.3,MacIntel,60.0024001,,,2,22,0,22,0,1,,,,,,,,0.1691,,
,,,,,,,,,,,,,,,0,0,0,0,1,train41_vistrain1,2023-11-30_12h39.57.738,VisTraining,2021.2.3,MacIntel,60.0024001,,,,,,,,,4,"[4,2,2,1,1,2,1]",0.92,1,6,3,green,,,
,,,,,,,,,,,,,,,1,0,1,0,1,train41_vistrain1,2023-11-30_12h39.57.738,VisTraining,2021.2.3,MacIntel,60.0024001,,,,,,,,,2,"[4,2,2,1,1,2,1]",0.46,1,6,3,green,,,
,,,,,,,,,,,,,,,2,0,2,0,1,train41_vistrain1,2023-11-30_12h39.57.738,VisTraining,2021.2.3,MacIntel,60.0024001,,,,,,,,,2,"[4,2,2,1,1,2,1]",0.46,1,6,3,green,,,
,,,,,,,,,,,,,,,3,0,3,0,1,train41_vistrain1,2023-11-30_12h39.57.738,VisTraining,2021.2.3,MacIntel,60.0024001,,,,,,,,,1,"[4,2,2,1,1,2,1]",0.23,1,6,3,green,,,
,,,,,,,,,,,,,,,4,0,4,0,1,train41_vistrain1,2023-11-30_12h39.57.738,VisTraining,2021.2.3,MacIntel,60.0024001,,,,,,,,,1,"[4,2,2,1,1,2,1]",0.23,1,6,3,green,,,
,,,,,,,,,,,,,,,5,0,5,0,1,train41_vistrain1,2023-11-30_12h39.57.738,VisTraining,2021.2.3,MacIntel,60.0024001,,,,,,,,,2,"[4,2,2,1,1,2,1]",0.46,1,6,3,green,,,
,,,,,,,,,,,,,,,6,0,6,0,1,train41_vistrain1,2023-11-30_12h39.57.738,VisTraining,2021.2.3,MacIntel,60.0024001,,,,,,,,,1,"[4,2,2,1,1,2,1]",0.23,1,6,3,green,,,
,,,,,,,,,,,,,,,7,0,7,0,1,train41_vistrain1,2023-11-30_12h39.57.738,VisTraining,2021.2.3,MacIntel,60.0024001,,,,,,,,,4,"[4,2,2,1,1,2,1]",0.92,1,6,3,green,,,
,,,,,,,,,,,,,,,8,0,8,0,1,train41_vistrain1,2023-11-30_12h39.57.738,VisTraining,2021.2.3,MacIntel,60.0024001,,,,,,,,,2,"[4,2,2,1,1,2,1]",0.46,1,6,3,green,,,
,,,,,,,,,,,,,,,9,0,9,0,1,train41_vistrain1,2023-11-30_12h39.57.738,VisTraining,2021.2.3,MacIntel,60.0024001,,,,,,,,,2,"[4,2,2,1,1,2,1]",0.46,1,6,3,green,,,
,,,,,,,,,,,,,,,10,0,10,0,1,train41_vistrain1,2023-11-30_12h39.57.738,VisTraining,2021.2.3,MacIntel,60.0024001,,,,,,,,,1,"[4,2,2,1,1,2,1]",0.23,1,6,3,green,,,
,,,,,,,,,,,,,,,11,0,11,0,1,train41_vistrain1,2023-11-30_12h39.57.738,VisTraining,2021.2.3,MacIntel,60.0024001,,,,,,,,,1,"[4,2,2,1,1,2,1]",0.23,1,6,3,green,,,
,,,,,,,,,,,,,,,12,0,12,0,1,train41_vistrain1,2023-11-30_12h39.57.738,VisTraining,2021.2.3,MacIntel,60.0024001,,,,,,,,,2,"[4,2,2,1,1,2,1]",0.46,1,6,3,green,,,
,,,,,,,,,,,,,,,13,0,13,0,1,train41_vistrain1,2023-11-30_12h39.57.738,VisTraining,2021.2.3,MacIntel,60.0024001,,,,,,,,,1,"[4,2,2,1,1,2,1]",0.23,1,6,3,green,,,
,,,,,,,,,,,,,,,14,0,14,0,1,train41_vistrain1,2023-11-30_12h39.57.738,VisTraining,2021.2.3,MacIntel,60.0024001,,,,,,,,,4,"[4,2,2,2,1,1,1]",0.92,1,6,3,green,,,
,,,,,,,,,,,,,,,15,0,15,0,1,train41_vistrain1,2023-11-30_12h39.57.738,VisTraining,2021.2.3,MacIntel,60.0024001,,,,,,,,,2,"[4,2,2,2,1,1,1]",0.46,1,6,3,green,,,
,,,,,,,,,,,,,,,16,0,16,0,1,train41_vistrain1,2023-11-30_12h39.57.738,VisTraining,2021.2.3,MacIntel,60.0024001,,,,,,,,,2,"[4,2,2,2,1,1,1]",0.46,1,6,3,green,,,
,,,,,,,,,,,,,,,17,0,17,0,1,train41_vistrain1,2023-11-30_12h39.57.738,VisTraining,2021.2.3,MacIntel,60.0024001,,,,,,,,,2,"[4,2,2,2,1,1,1]",0.46,1,6,3,green,,,
,,,,,,,,,,,,,,,18,0,18,0,1,train41_vistrain1,2023-11-30_12h39.57.738,VisTraining,2021.2.3,MacIntel,60.0024001,,,,,,,,,1,"[4,2,2,2,1,1,1]",0.23,1,6,3,green,,,
,,,,,,,,,,,,,,,19,0,19,0,1,train41_vistrain1,2023-11-30_12h39.57.738,VisTraining,2021.2.3,MacIntel,60.0024001,,,,,,,,,1,"[4,2,2,2,1,1,1]",0.23,1,6,3,green,,,
,,,,,,,,,,,,,,,20,0,20,0,1,train41_vistrain1,2023-11-30_12h39.57.738,VisTraining,2021.2.3,MacIntel,60.0024001,,,,,,,,,1,"[4,2,2,2,1,1,1]",0.23,1,6,3,green,,,
,,,,,,,,,,,,,,,,,,,,train41_vistrain1,2023-11-30_12h39.57.738,VisTraining,2021.2.3,MacIntel,60.0024001,,,g,23,0,23,0,1,,,,,,,,0.3591,,
,,,,,,,,,,,,,,,0,0,0,0,1,train41_vistrain1,2023-11-30_12h39.57.738,VisTraining,2021.2.3,MacIntel,60.0024001,,,,,,,,,2,"[2,2,3,1,1,3,1]",0.54,3,6,3,black,,,
,,,,,,,,,,,,,,,1,0,1,0,1,train41_vistrain1,2023-11-30_12h39.57.738,VisTraining,2021.2.3,MacIntel,60.0024001,,,,,,,,,2,"[2,2,3,1,1,3,1]",0.54,3,6,3,black,,,
,,,,,,,,,,,,,,,2,0,2,0,1,train41_vistrain1,2023-11-30_12h39.57.738,VisTraining,2021.2.3,MacIntel,60.0024001,,,,,,,,,3,"[2,2,3,1,1,3,1]",0.81,3,6,3,black,,,
,,,,,,,,,,,,,,,3,0,3,0,1,train41_vistrain1,2023-11-30_12h39.57.738,VisTraining,2021.2.3,MacIntel,60.0024001,,,,,,,,,1,"[2,2,3,1,1,3,1]",0.27,3,6,3,black,,,
,,,,,,,,,,,,,,,4,0,4,0,1,train41_vistrain1,2023-11-30_12h39.57.738,VisTraining,2021.2.3,MacIntel,60.0024001,,,,,,,,,1,"[2,2,3,1,1,3,1]",0.27,3,6,3,black,,,
,,,,,,,,,,,,,,,5,0,5,0,1,train41_vistrain1,2023-11-30_12h39.57.738,VisTraining,2021.2.3,MacIntel,60.0024001,,,,,,,,,3,"[2,2,3,1,1,3,1]",0.81,3,6,3,black,,,
,,,,,,,,,,,,,,,6,0,6,0,1,train41_vistrain1,2023-11-30_12h39.57.738,VisTraining,2021.2.3,MacIntel,60.0024001,,,,,,,,,1,"[2,2,3,1,1,3,1]",0.27,3,6,3,black,,,
,,,,,,,,,,,,,,,7,0,7,0,1,train41_vistrain1,2023-11-30_12h39.57.738,VisTraining,2021.2.3,MacIntel,60.0024001,,,,,,,,,2,"[2,2,3,1,1,3,1]",0.54,3,6,3,black,,,
,,,,,,,,,,,,,,,8,0,8,0,1,train41_vistrain1,2023-11-30_12h39.57.738,VisTraining,2021.2.3,MacIntel,60.0024001,,,,,,,,,2,"[2,2,3,1,1,3,1]",0.54,3,6,3,black,,,
,,,,,,,,,,,,,,,9,0,9,0,1,train41_vistrain1,2023-11-30_12h39.57.738,VisTraining,2021.2.3,MacIntel,60.0024001,,,,,,,,,3,"[2,2,3,1,1,3,1]",0.81,3,6,3,black,,,
,,,,,,,,,,,,,,,10,0,10,0,1,train41_vistrain1,2023-11-30_12h39.57.738,VisTraining,2021.2.3,MacIntel,60.0024001,,,,,,,,,1,"[2,2,3,1,1,3,1]",0.27,3,6,3,black,,,
,,,,,,,,,,,,,,,11,0,11,0,1,train41_vistrain1,2023-11-30_12h39.57.738,VisTraining,2021.2.3,MacIntel,60.0024001,,,,,,,,,1,"[2,2,3,1,1,3,1]",0.27,3,6,3,black,,,
,,,,,,,,,,,,,,,12,0,12,0,1,train41_vistrain1,2023-11-30_12h39.57.738,VisTraining,2021.2.3,MacIntel,60.0024001,,,,,,,,,3,"[2,2,3,1,1,3,1]",0.81,3,6,3,black,,,
,,,,,,,,,,,,,,,13,0,13,0,1,train41_vistrain1,2023-11-30_12h39.57.738,VisTraining,2021.2.3,MacIntel,60.0024001,,,,,,,,,1,"[2,2,3,1,1,3,1]",0.27,3,6,3,black,,,
,,,,,,,,,,,,,,,14,0,14,0,1,train41_vistrain1,2023-11-30_12h39.57.738,VisTraining,2021.2.3,MacIntel,60.0024001,,,,,,,,,2,"[2,2,3,1,3,1,1]",0.54,3,6,3,black,,,
,,,,,,,,,,,,,,,15,0,15,0,1,train41_vistrain1,2023-11-30_12h39.57.738,VisTraining,2021.2.3,MacIntel,60.0024001,,,,,,,,,2,"[2,2,3,1,3,1,1]",0.54,3,6,3,black,,,
,,,,,,,,,,,,,,,16,0,16,0,1,train41_vistrain1,2023-11-30_12h39.57.738,VisTraining,2021.2.3,MacIntel,60.0024001,,,,,,,,,3,"[2,2,3,1,3,1,1]",0.81,3,6,3,black,,,
,,,,,,,,,,,,,,,17,0,17,0,1,train41_vistrain1,2023-11-30_12h39.57.738,VisTraining,2021.2.3,MacIntel,60.0024001,,,,,,,,,1,"[2,2,3,1,3,1,1]",0.27,3,6,3,black,,,
,,,,,,,,,,,,,,,18,0,18,0,1,train41_vistrain1,2023-11-30_12h39.57.738,VisTraining,2021.2.3,MacIntel,60.0024001,,,,,,,,,3,"[2,2,3,1,3,1,1]",0.81,3,6,3,black,,,
,,,,,,,,,,,,,,,19,0,19,0,1,train41_vistrain1,2023-11-30_12h39.57.738,VisTraining,2021.2.3,MacIntel,60.0024001,,,,,,,,,1,"[2,2,3,1,3,1,1]",0.27,3,6,3,black,,,
,,,,,,,,,,,,,,,20,0,20,0,1,train41_vistrain1,2023-11-30_12h39.57.738,VisTraining,2021.2.3,MacIntel,60.0024001,,,,,,,,,1,"[2,2,3,1,3,1,1]",0.27,3,6,3,black,,,
,,,,,,,,,,,,,,,,,,,,train41_vistrain1,2023-11-30_12h39.57.738,VisTraining,2021.2.3,MacIntel,60.0024001,,,3,24,0,24,0,1,,,,,,,,0.2149,,
,,,,,,,,,,,,,,,0,0,0,0,1,train41_vistrain1,2023-11-30_12h39.57.738,VisTraining,2021.2.3,MacIntel,60.0024001,,,,,,,,,4,"[4,1,1,2,1,3,1]",0.92,1,6,1,black,,,
,,,,,,,,,,,,,,,1,0,1,0,1,train41_vistrain1,2023-11-30_12h39.57.738,VisTraining,2021.2.3,MacIntel,60.0024001,,,,,,,,,1,"[4,1,1,2,1,3,1]",0.23,1,6,1,black,,,
,,,,,,,,,,,,,,,2,0,2,0,1,train41_vistrain1,2023-11-30_12h39.57.738,VisTraining,2021.2.3,MacIntel,60.0024001,,,,,,,,,1,"[4,1,1,2,1,3,1]",0.23,1,6,1,black,,,
,,,,,,,,,,,,,,,3,0,3,0,1,train41_vistrain1,2023-11-30_12h39.57.738,VisTraining,2021.2.3,MacIntel,60.0024001,,,,,,,,,2,"[4,1,1,2,1,3,1]",0.46,1,6,1,black,,,
,,,,,,,,,,,,,,,4,0,4,0,1,train41_vistrain1,2023-11-30_12h39.57.738,VisTraining,2021.2.3,MacIntel,60.0024001,,,,,,,,,1,"[4,1,1,2,1,3,1]",0.23,1,6,1,black,,,
,,,,,,,,,,,,,,,5,0,5,0,1,train41_vistrain1,2023-11-30_12h39.57.738,VisTraining,2021.2.3,MacIntel,60.0024001,,,,,,,,,3,"[4,1,1,2,1,3,1]",0.69,1,6,1,black,,,
,,,,,,,,,,,,,,,6,0,6,0,1,train41_vistrain1,2023-11-30_12h39.57.738,VisTraining,2021.2.3,MacIntel,60.0024001,,,,,,,,,1,"[4,1,1,2,1,3,1]",0.23,1,6,1,black,,,
,,,,,,,,,,,,,,,7,0,7,0,1,train41_vistrain1,2023-11-30_12h39.57.738,VisTraining,2021.2.3,MacIntel,60.0024001,,,,,,,,,4,"[4,1,1,2,3,1,1]",0.92,1,6,1,black,,,
,,,,,,,,,,,,,,,8,0,8,0,1,train41_vistrain1,2023-11-30_12h39.57.738,VisTraining,2021.2.3,MacIntel,60.0024001,,,,,,,,,1,"[4,1,1,2,3,1,1]",0.23,1,6,1,black,,,
,,,,,,,,,,,,,,,9,0,9,0,1,train41_vistrain1,2023-11-30_12h39.57.738,VisTraining,2021.2.3,MacIntel,60.0024001,,,,,,,,,1,"[4,1,1,2,3,1,1]",0.23,1,6,1,black,,,
,,,,,,,,,,,,,,,10,0,10,0,1,train41_vistrain1,2023-11-30_12h39.57.738,VisTraining,2021.2.3,MacIntel,60.0024001,,,,,,,,,2,"[4,1,1,2,3,1,1]",0.46,1,6,1,black,,,
,,,,,,,,,,,,,,,11,0,11,0,1,train41_vistrain1,2023-11-30_12h39.57.738,VisTraining,2021.2.3,MacIntel,60.0024001,,,,,,,,,3,"[4,1,1,2,3,1,1]",0.69,1,6,1,black,,,
,,,,,,,,,,,,,,,12,0,12,0,1,train41_vistrain1,2023-11-30_12h39.57.738,VisTraining,2021.2.3,MacIntel,60.0024001,,,,,,,,,1,"[4,1,1,2,3,1,1]",0.23,1,6,1,black,,,
,,,,,,,,,,,,,,,13,0,13,0,1,train41_vistrain1,2023-11-30_12h39.57.738,VisTraining,2021.2.3,MacIntel,60.0024001,,,,,,,,,1,"[4,1,1,2,3,1,1]",0.23,1,6,1,black,,,
,,,,,,,,,,,,,,,14,0,14,0,1,train41_vistrain1,2023-11-30_12h39.57.738,VisTraining,2021.2.3,MacIntel,60.0024001,,,,,,,,,4,"[4,1,1,2,3,1,1]",0.92,1,6,1,black,,,
,,,,,,,,,,,,,,,15,0,15,0,1,train41_vistrain1,2023-11-30_12h39.57.738,VisTraining,2021.2.3,MacIntel,60.0024001,,,,,,,,,1,"[4,1,1,2,3,1,1]",0.23,1,6,1,black,,,
,,,,,,,,,,,,,,,16,0,16,0,1,train41_vistrain1,2023-11-30_12h39.57.738,VisTraining,2021.2.3,MacIntel,60.0024001,,,,,,,,,1,"[4,1,1,2,3,1,1]",0.23,1,6,1,black,,,
,,,,,,,,,,,,,,,17,0,17,0,1,train41_vistrain1,2023-11-30_12h39.57.738,VisTraining,2021.2.3,MacIntel,60.0024001,,,,,,,,,2,"[4,1,1,2,3,1,1]",0.46,1,6,1,black,,,
,,,,,,,,,,,,,,,18,0,18,0,1,train41_vistrain1,2023-11-30_12h39.57.738,VisTraining,2021.2.3,MacIntel,60.0024001,,,,,,,,,3,"[4,1,1,2,3,1,1]",0.69,1,6,1,black,,,
,,,,,,,,,,,,,,,19,0,19,0,1,train41_vistrain1,2023-11-30_12h39.57.738,VisTraining,2021.2.3,MacIntel,60.0024001,,,,,,,,,1,"[4,1,1,2,3,1,1]",0.23,1,6,1,black,,,
,,,,,,,,,,,,,,,20,0,20,0,1,train41_vistrain1,2023-11-30_12h39.57.738,VisTraining,2021.2.3,MacIntel,60.0024001,,,,,,,,,1,"[4,1,1,2,3,1,1]",0.23,1,6,1,black,,,
,,,,,,,,,,,,,,,,,,,,train41_vistrain1,2023-11-30_12h39.57.738,VisTraining,2021.2.3,MacIntel,60.0024001,,,2,25,0,25,0,1,,,,,,,,0.7644,,
,,,,,,,,,,,,,,,0,0,0,0,1,train41_vistrain1,2023-11-30_12h39.57.738,VisTraining,2021.2.3,MacIntel,60.0024001,,,,,,,,,2,"[2,2,1,3,1,3,1]",0.5,2,6,1,black,,,
,,,,,,,,,,,,,,,1,0,1,0,1,train41_vistrain1,2023-11-30_12h39.57.738,VisTraining,2021.2.3,MacIntel,60.0024001,,,,,,,,,2,"[2,2,1,3,1,3,1]",0.5,2,6,1,black,,,
,,,,,,,,,,,,,,,2,0,2,0,1,train41_vistrain1,2023-11-30_12h39.57.738,VisTraining,2021.2.3,MacIntel,60.0024001,,,,,,,,,1,"[2,2,1,3,1,3,1]",0.25,2,6,1,black,,,
,,,,,,,,,,,,,,,3,0,3,0,1,train41_vistrain1,2023-11-30_12h39.57.738,VisTraining,2021.2.3,MacIntel,60.0024001,,,,,,,,,3,"[2,2,1,3,1,3,1]",0.75,2,6,1,black,,,
,,,,,,,,,,,,,,,4,0,4,0,1,train41_vistrain1,2023-11-30_12h39.57.738,VisTraining,2021.2.3,MacIntel,60.0024001,,,,,,,,,1,"[2,2,1,3,1,3,1]",0.25,2,6,1,black,,,
,,,,,,,,,,,,,,,5,0,5,0,1,train41_vistrain1,2023-11-30_12h39.57.738,VisTraining,2021.2.3,MacIntel,60.0024001,,,,,,,,,3,"[2,2,1,3,1,3,1]",0.75,2,6,1,black,,,
,,,,,,,,,,,,,,,6,0,6,0,1,train41_vistrain1,2023-11-30_12h39.57.738,VisTraining,2021.2.3,MacIntel,60.0024001,,,,,,,,,1,"[2,2,1,3,1,3,1]",0.25,2,6,1,black,,,
,,,,,,,,,,,,,,,7,0,7,0,1,train41_vistrain1,2023-11-30_12h39.57.738,VisTraining,2021.2.3,MacIntel,60.0024001,,,,,,,,,2,"[2,2,1,3,3,1,1]",0.5,2,6,1,black,,,
,,,,,,,,,,,,,,,8,0,8,0,1,train41_vistrain1,2023-11-30_12h39.57.738,VisTraining,2021.2.3,MacIntel,60.0024001,,,,,,,,,2,"[2,2,1,3,3,1,1]",0.5,2,6,1,black,,,
,,,,,,,,,,,,,,,9,0,9,0,1,train41_vistrain1,2023-11-30_12h39.57.738,VisTraining,2021.2.3,MacIntel,60.0024001,,,,,,,,,1,"[2,2,1,3,3,1,1]",0.25,2,6,1,black,,,
,,,,,,,,,,,,,,,10,0,10,0,1,train41_vistrain1,2023-11-30_12h39.57.738,VisTraining,2021.2.3,MacIntel,60.0024001,,,,,,,,,3,"[2,2,1,3,3,1,1]",0.75,2,6,1,black,,,
,,,,,,,,,,,,,,,11,0,11,0,1,train41_vistrain1,2023-11-30_12h39.57.738,VisTraining,2021.2.3,MacIntel,60.0024001,,,,,,,,,3,"[2,2,1,3,3,1,1]",0.75,2,6,1,black,,,
,,,,,,,,,,,,,,,12,0,12,0,1,train41_vistrain1,2023-11-30_12h39.57.738,VisTraining,2021.2.3,MacIntel,60.0024001,,,,,,,,,1,"[2,2,1,3,3,1,1]",0.25,2,6,1,black,,,
,,,,,,,,,,,,,,,13,0,13,0,1,train41_vistrain1,2023-11-30_12h39.57.738,VisTraining,2021.2.3,MacIntel,60.0024001,,,,,,,,,1,"[2,2,1,3,3,1,1]",0.25,2,6,1,black,,,
,,,,,,,,,,,,,,,14,0,14,0,1,train41_vistrain1,2023-11-30_12h39.57.738,VisTraining,2021.2.3,MacIntel,60.0024001,,,,,,,,,2,"[2,2,1,3,3,1,1]",0.5,2,6,1,black,,,
,,,,,,,,,,,,,,,15,0,15,0,1,train41_vistrain1,2023-11-30_12h39.57.738,VisTraining,2021.2.3,MacIntel,60.0024001,,,,,,,,,2,"[2,2,1,3,3,1,1]",0.5,2,6,1,black,,,
,,,,,,,,,,,,,,,16,0,16,0,1,train41_vistrain1,2023-11-30_12h39.57.738,VisTraining,2021.2.3,MacIntel,60.0024001,,,,,,,,,1,"[2,2,1,3,3,1,1]",0.25,2,6,1,black,,,
,,,,,,,,,,,,,,,17,0,17,0,1,train41_vistrain1,2023-11-30_12h39.57.738,VisTraining,2021.2.3,MacIntel,60.0024001,,,,,,,,,3,"[2,2,1,3,3,1,1]",0.75,2,6,1,black,,,
,,,,,,,,,,,,,,,18,0,18,0,1,train41_vistrain1,2023-11-30_12h39.57.738,VisTraining,2021.2.3,MacIntel,60.0024001,,,,,,,,,3,"[2,2,1,3,3,1,1]",0.75,2,6,1,black,,,
,,,,,,,,,,,,,,,19,0,19,0,1,train41_vistrain1,2023-11-30_12h39.57.738,VisTraining,2021.2.3,MacIntel,60.0024001,,,,,,,,,1,"[2,2,1,3,3,1,1]",0.25,2,6,1,black,,,
,,,,,,,,,,,,,,,20,0,20,0,1,train41_vistrain1,2023-11-30_12h39.57.738,VisTraining,2021.2.3,MacIntel,60.0024001,,,,,,,,,1,"[2,2,1,3,3,1,1]",0.25,2,6,1,black,,,
,,,,,,,,,,,,,,,,,,,,train41_vistrain1,2023-11-30_12h39.57.738,VisTraining,2021.2.3,MacIntel,60.0024001,,,2,26,0,26,0,1,,,,,,,,1.25,,
,,,,,,,,,,,,,,,0,0,0,0,1,train41_vistrain1,2023-11-30_12h39.57.738,VisTraining,2021.2.3,MacIntel,60.0024001,,,,,,,,,1,"[1,1,2,3,1,3,1,1]",0.25,2,7,1,black,,,
,,,,,,,,,,,,,,,1,0,1,0,1,train41_vistrain1,2023-11-30_12h39.57.738,VisTraining,2021.2.3,MacIntel,60.0024001,,,,,,,,,1,"[1,1,2,3,1,3,1,1]",0.25,2,7,1,black,,,
,,,,,,,,,,,,,,,2,0,2,0,1,train41_vistrain1,2023-11-30_12h39.57.738,VisTraining,2021.2.3,MacIntel,60.0024001,,,,,,,,,2,"[1,1,2,3,1,3,1,1]",0.5,2,7,1,black,,,
,,,,,,,,,,,,,,,3,0,3,0,1,train41_vistrain1,2023-11-30_12h39.57.738,VisTraining,2021.2.3,MacIntel,60.0024001,,,,,,,,,3,"[1,1,2,3,1,3,1,1]",0.75,2,7,1,black,,,
,,,,,,,,,,,,,,,4,0,4,0,1,train41_vistrain1,2023-11-30_12h39.57.738,VisTraining,2021.2.3,MacIntel,60.0024001,,,,,,,,,1,"[1,1,2,3,1,3,1,1]",0.25,2,7,1,black,,,
,,,,,,,,,,,,,,,5,0,5,0,1,train41_vistrain1,2023-11-30_12h39.57.738,VisTraining,2021.2.3,MacIntel,60.0024001,,,,,,,,,3,"[1,1,2,3,1,3,1,1]",0.75,2,7,1,black,,,
,,,,,,,,,,,,,,,6,0,6,0,1,train41_vistrain1,2023-11-30_12h39.57.738,VisTraining,2021.2.3,MacIntel,60.0024001,,,,,,,,,1,"[1,1,2,3,1,3,1,1]",0.25,2,7,1,black,,,
,,,,,,,,,,,,,,,7,0,7,0,1,train41_vistrain1,2023-11-30_12h39.57.738,VisTraining,2021.2.3,MacIntel,60.0024001,,,,,,,,,1,"[1,1,2,3,1,3,1,1]",0.25,2,7,1,black,,,
,,,,,,,,,,,,,,,8,0,8,0,1,train41_vistrain1,2023-11-30_12h39.57.738,VisTraining,2021.2.3,MacIntel,60.0024001,,,,,,,,,1,"[1,1,2,3,1,1,3,1]",0.25,2,7,1,black,,,
,,,,,,,,,,,,,,,9,0,9,0,1,train41_vistrain1,2023-11-30_12h39.57.738,VisTraining,2021.2.3,MacIntel,60.0024001,,,,,,,,,1,"[1,1,2,3,1,1,3,1]",0.25,2,7,1,black,,,
,,,,,,,,,,,,,,,10,0,10,0,1,train41_vistrain1,2023-11-30_12h39.57.738,VisTraining,2021.2.3,MacIntel,60.0024001,,,,,,,,,2,"[1,1,2,3,1,1,3,1]",0.5,2,7,1,black,,,
,,,,,,,,,,,,,,,11,0,11,0,1,train41_vistrain1,2023-11-30_12h39.57.738,VisTraining,2021.2.3,MacIntel,60.0024001,,,,,,,,,3,"[1,1,2,3,1,1,3,1]",0.75,2,7,1,black,,,
,,,,,,,,,,,,,,,12,0,12,0,1,train41_vistrain1,2023-11-30_12h39.57.738,VisTraining,2021.2.3,MacIntel,60.0024001,,,,,,,,,1,"[1,1,2,3,1,1,3,1]",0.25,2,7,1,black,,,
,,,,,,,,,,,,,,,13,0,13,0,1,train41_vistrain1,2023-11-30_12h39.57.738,VisTraining,2021.2.3,MacIntel,60.0024001,,,,,,,,,1,"[1,1,2,3,1,1,3,1]",0.25,2,7,1,black,,,
,,,,,,,,,,,,,,,14,0,14,0,1,train41_vistrain1,2023-11-30_12h39.57.738,VisTraining,2021.2.3,MacIntel,60.0024001,,,,,,,,,3,"[1,1,2,3,1,1,3,1]",0.75,2,7,1,black,,,
,,,,,,,,,,,,,,,15,0,15,0,1,train41_vistrain1,2023-11-30_12h39.57.738,VisTraining,2021.2.3,MacIntel,60.0024001,,,,,,,,,1,"[1,1,2,3,1,1,3,1]",0.25,2,7,1,black,,,
,,,,,,,,,,,,,,,16,0,16,0,1,train41_vistrain1,2023-11-30_12h39.57.738,VisTraining,2021.2.3,MacIntel,60.0024001,,,,,,,,,1,"[1,1,2,3,1,1,3,1]",0.25,2,7,1,black,,,
,,,,,,,,,,,,,,,17,0,17,0,1,train41_vistrain1,2023-11-30_12h39.57.738,VisTraining,2021.2.3,MacIntel,60.0024001,,,,,,,,,1,"[1,1,2,3,1,1,3,1]",0.25,2,7,1,black,,,
,,,,,,,,,,,,,,,18,0,18,0,1,train41_vistrain1,2023-11-30_12h39.57.738,VisTraining,2021.2.3,MacIntel,60.0024001,,,,,,,,,2,"[1,1,2,3,1,1,3,1]",0.5,2,7,1,black,,,
,,,,,,,,,,,,,,,19,0,19,0,1,train41_vistrain1,2023-11-30_12h39.57.738,VisTraining,2021.2.3,MacIntel,60.0024001,,,,,,,,,3,"[1,1,2,3,1,1,3,1]",0.75,2,7,1,black,,,
,,,,,,,,,,,,,,,20,0,20,0,1,train41_vistrain1,2023-11-30_12h39.57.738,VisTraining,2021.2.3,MacIntel,60.0024001,,,,,,,,,1,"[1,1,2,3,1,1,3,1]",0.25,2,7,1,black,,,
,,,,,,,,,,,,,,,21,0,21,0,1,train41_vistrain1,2023-11-30_12h39.57.738,VisTraining,2021.2.3,MacIntel,60.0024001,,,,,,,,,1,"[1,1,2,3,1,1,3,1]",0.25,2,7,1,black,,,
