key_resp.keys,key_resp.rt,key_resp_2.keys,key_resp_2.rt,key_resp_3.keys,key_resp_3.rt,trials.thisRepN,trials.thisTrialN,trials.thisN,trials.thisIndex,trials.ran,volstandard,voldeviant,participant,date,expName,psychopyVersion,OS,frameRate,key_resp_4.keys,key_resp_4.rt,key_resp_5.keys,key_resp_5.rt,trials_2.thisRepN,trials_2.thisTrialN,trials_2.thisN,trials_2.thisIndex,trials_2.ran,RegStandardPitch,RegDeviantPitch,key_resp_6.keys,key_resp_6.rt,RegAudSequence,diff-reg,trials_3.thisRepN,trials_3.thisTrialN,trials_3.thisN,trials_3.thisIndex,trials_3.ran,key_resp_7.keys,key_resp_7.rt,trials_5.thisRepN,trials_5.thisTrialN,trials_5.thisN,trials_5.thisIndex,trials_5.ran,standard,devient,key_resp_8.keys,key_resp_8.rt,trials_4.thisRepN,trials_4.thisTrialN,trials_4.thisN,trials_4.thisIndex,trials_4.ran,key_resp_9.keys,key_resp_9.rt
space,1.2097,space,3.9857,space,1.6611,0,0,0,0,1,RegPatterns/01-ms_2_2_4_1_3_unit230.mp3,RegPatterns/01d-ms_2_2_4_3_1_unit230.mp3,train3_audtrain2,2023-11-11_18h26.45.217,AudTraining2,2021.2.3,Win32,60.45949214,,,,,,,,,,,,,,,,,,,,,,,,,,,,,,,,,,,,,,
,,,,,,,,,,,,,train3_audtrain2,2023-11-11_18h26.45.217,AudTraining2,2021.2.3,Win32,60.45949214,space,2.6791,g,1.3905,0,0,0,0,1,RegPatterns/Noise.mp3,RegPatterns/Noise.mp3,,,,,,,,,,,,,,,,,,,,,,,,,,,
,,,,,,,,,,,,,train3_audtrain2,2023-11-11_18h26.45.217,AudTraining2,2021.2.3,Win32,60.45949214,,,,,,,,,,,,space,1.0832,RegPatterns/02-ms_3_1_4_1_3_unit250.mp3,0,0,0,0,0,1,,,,,,,,,,,,,,,,,,
,,,,,,,,,,,,,train3_audtrain2,2023-11-11_18h26.45.217,AudTraining2,2021.2.3,Win32,60.45949214,,,,,,,,,,,,,,RegPatterns/02d-ms_3_1_4_3_1_unit250.mp3,2,1,0,1,0,1,,,,,,,,,,,,,,,,,,
,,,,,,,,,,,,,train3_audtrain2,2023-11-11_18h26.45.217,AudTraining2,2021.2.3,Win32,60.45949214,,,,,,,,,,,,,,RegPatterns/02-ms_3_1_4_1_3_unit250.mp3,0,2,0,2,0,1,,,,,,,,,,,,,,,,,,
,,,,,,,,,,,,,train3_audtrain2,2023-11-11_18h26.45.217,AudTraining2,2021.2.3,Win32,60.45949214,,,,,,,,,,,,,,,,,,,,,2,0.3839,0,0,0,0,1,RegPatterns/02-ms_3_1_4_1_3_unit250.mp3,RegPatterns/02d-ms_3_1_4_3_1_unit250.mp3,,,,,,,,,
,,,,,,,,,,,,,train3_audtrain2,2023-11-11_18h26.45.217,AudTraining2,2021.2.3,Win32,60.45949214,,,,,,,,,,,,,,RegPatterns/12-ms_3_1_1_3_2_2_unit270.mp3,0,0,0,0,0,1,,,,,,,,,,,,,,,,,,
,,,,,,,,,,,,,train3_audtrain2,2023-11-11_18h26.45.217,AudTraining2,2021.2.3,Win32,60.45949214,,,,,,,,,,,,,,RegPatterns/12-ms_3_1_1_3_2_2_unit270.mp3,0,1,0,1,0,1,,,,,,,,,,,,,,,,,,
,,,,,,,,,,,,,train3_audtrain2,2023-11-11_18h26.45.217,AudTraining2,2021.2.3,Win32,60.45949214,,,,,,,,,,,,,,RegPatterns/12d-ms_3_1_3_1_2_2_unit270.mp3,3,2,0,2,0,1,,,,,,,,,,,,,,,,,,
,,,,,,,,,,,,,train3_audtrain2,2023-11-11_18h26.45.217,AudTraining2,2021.2.3,Win32,60.45949214,,,,,,,,,,,,,,,,,,,,,3,0.26,0,1,1,3,1,RegPatterns/12-ms_3_1_1_3_2_2_unit270.mp3,RegPatterns/12d-ms_3_1_3_1_2_2_unit270.mp3,,,,,,,,,
,,,,,,,,,,,,,train3_audtrain2,2023-11-11_18h26.45.217,AudTraining2,2021.2.3,Win32,60.45949214,,,,,,,,,,,,,,RegPatterns/09d-ms_2_1_1_3_1_4_unit270.mp3,1,0,0,0,0,1,,,,,,,,,,,,,,,,,,
,,,,,,,,,,,,,train3_audtrain2,2023-11-11_18h26.45.217,AudTraining2,2021.2.3,Win32,60.45949214,,,,,,,,,,,,,,RegPatterns/09-ms_2_1_1_1_3_4_unit270.mp3,0,1,0,1,0,1,,,,,,,,,,,,,,,,,,
,,,,,,,,,,,,,train3_audtrain2,2023-11-11_18h26.45.217,AudTraining2,2021.2.3,Win32,60.45949214,,,,,,,,,,,,,,RegPatterns/09-ms_2_1_1_1_3_4_unit270.mp3,0,2,0,2,0,1,,,,,,,,,,,,,,,,,,
,,,,,,,,,,,,,train3_audtrain2,2023-11-11_18h26.45.217,AudTraining2,2021.2.3,Win32,60.45949214,,,,,,,,,,,,,,,,,,,,,1,6.4993,0,2,2,2,1,RegPatterns/09-ms_2_1_1_1_3_4_unit270.mp3,RegPatterns/09d-ms_2_1_1_3_1_4_unit270.mp3,,,,,,,,,
,,,,,,,,,,,,,train3_audtrain2,2023-11-11_18h26.45.217,AudTraining2,2021.2.3,Win32,60.45949214,,,,,,,,,,,,,,RegPatterns/16-ms_3_1_2_2_1_3_unit230.mp3,0,0,0,0,0,1,,,,,,,,,,,,,,,,,,
,,,,,,,,,,,,,train3_audtrain2,2023-11-11_18h26.45.217,AudTraining2,2021.2.3,Win32,60.45949214,,,,,,,,,,,,,,RegPatterns/16-ms_3_1_2_2_1_3_unit230.mp3,0,1,0,1,0,1,,,,,,,,,,,,,,,,,,
,,,,,,,,,,,,,train3_audtrain2,2023-11-11_18h26.45.217,AudTraining2,2021.2.3,Win32,60.45949214,,,,,,,,,,,,,,RegPatterns/16d-ms_3_1_2_2_3_1_unit230.mp3,3,2,0,2,0,1,,,,,,,,,,,,,,,,,,
,,,,,,,,,,,,,train3_audtrain2,2023-11-11_18h26.45.217,AudTraining2,2021.2.3,Win32,60.45949214,,,,,,,,,,,,,,,,,,,,,2,1.1223,0,3,3,5,1,RegPatterns/16-ms_3_1_2_2_1_3_unit230.mp3,RegPatterns/16d-ms_3_1_2_2_3_1_unit230.mp3,,,,,,,,,
,,,,,,,,,,,,,train3_audtrain2,2023-11-11_18h26.45.217,AudTraining2,2021.2.3,Win32,60.45949214,,,,,,,,,,,,,,RegPatterns/20-ms_2_1_1_2_2_3_1_unit230.mp3,0,0,0,0,0,1,,,,,,,,,,,,,,,,,,
,,,,,,,,,,,,,train3_audtrain2,2023-11-11_18h26.45.217,AudTraining2,2021.2.3,Win32,60.45949214,,,,,,,,,,,,,,RegPatterns/20d-ms_2_1_1_2_2_1_3_unit230.mp3,2,1,0,1,0,1,,,,,,,,,,,,,,,,,,
,,,,,,,,,,,,,train3_audtrain2,2023-11-11_18h26.45.217,AudTraining2,2021.2.3,Win32,60.45949214,,,,,,,,,,,,,,RegPatterns/20-ms_2_1_1_2_2_3_1_unit230.mp3,0,2,0,2,0,1,,,,,,,,,,,,,,,,,,
,,,,,,,,,,,,,train3_audtrain2,2023-11-11_18h26.45.217,AudTraining2,2021.2.3,Win32,60.45949214,,,,,,,,,,,,,,,,,,,,,3,0.5094,0,4,4,11,1,RegPatterns/20-ms_2_1_1_2_2_3_1_unit230.mp3,RegPatterns/20d-ms_2_1_1_2_2_1_3_unit230.mp3,,,,,,,,,
,,,,,,,,,,,,,train3_audtrain2,2023-11-11_18h26.45.217,AudTraining2,2021.2.3,Win32,60.45949214,,,,,,,,,,,,,,RegPatterns/26-ms_1_1_2_2_1_1_4_unit250.mp3,0,0,0,0,0,1,,,,,,,,,,,,,,,,,,
,,,,,,,,,,,,,train3_audtrain2,2023-11-11_18h26.45.217,AudTraining2,2021.2.3,Win32,60.45949214,,,,,,,,,,,,,,RegPatterns/26d-ms_1_1_2_1_1_2_4_unit250.mp3,2,1,0,1,0,1,,,,,,,,,,,,,,,,,,
,,,,,,,,,,,,,train3_audtrain2,2023-11-11_18h26.45.217,AudTraining2,2021.2.3,Win32,60.45949214,,,,,,,,,,,,,,RegPatterns/26-ms_1_1_2_2_1_1_4_unit250.mp3,0,2,0,2,0,1,,,,,,,,,,,,,,,,,,
,,,,,,,,,,,,,train3_audtrain2,2023-11-11_18h26.45.217,AudTraining2,2021.2.3,Win32,60.45949214,,,,,,,,,,,,,,,,,,,,,2,3.0596,0,5,5,8,1,RegPatterns/26-ms_1_1_2_2_1_1_4_unit250.mp3,RegPatterns/26d-ms_1_1_2_1_1_2_4_unit250.mp3,,,,,,,,,
,,,,,,,,,,,,,train3_audtrain2,2023-11-11_18h26.45.217,AudTraining2,2021.2.3,Win32,60.45949214,,,,,,,,,,,,,,RegPatterns/29-ms_3_1_2_1_1_1_3_unit250.mp3,0,0,0,0,0,1,,,,,,,,,,,,,,,,,,
,,,,,,,,,,,,,train3_audtrain2,2023-11-11_18h26.45.217,AudTraining2,2021.2.3,Win32,60.45949214,,,,,,,,,,,,,,RegPatterns/29d-ms_3_1_2_1_1_3_1_unit250.mp3,2,1,0,1,0,1,,,,,,,,,,,,,,,,,,
,,,,,,,,,,,,,train3_audtrain2,2023-11-11_18h26.45.217,AudTraining2,2021.2.3,Win32,60.45949214,,,,,,,,,,,,,,RegPatterns/29-ms_3_1_2_1_1_1_3_unit250.mp3,0,2,0,2,0,1,,,,,,,,,,,,,,,,,,
,,,,,,,,,,,,,train3_audtrain2,2023-11-11_18h26.45.217,AudTraining2,2021.2.3,Win32,60.45949214,,,,,,,,,,,,,,,,,,,,,2,1.0497,0,6,6,9,1,RegPatterns/29-ms_3_1_2_1_1_1_3_unit250.mp3,RegPatterns/29d-ms_3_1_2_1_1_3_1_unit250.mp3,,,,,,,,,
,,,,,,,,,,,,,train3_audtrain2,2023-11-11_18h26.45.217,AudTraining2,2021.2.3,Win32,60.45949214,,,,,,,,,,,,,,RegPatterns/19-ms_1_1_2_3_1_2_2_unit230.mp3,0,0,0,0,0,1,,,,,,,,,,,,,,,,,,
,,,,,,,,,,,,,train3_audtrain2,2023-11-11_18h26.45.217,AudTraining2,2021.2.3,Win32,60.45949214,,,,,,,,,,,,,,RegPatterns/19d-ms_1_1_2_1_3_2_2_unit230.mp3,2,1,0,1,0,1,,,,,,,,,,,,,,,,,,
,,,,,,,,,,,,,train3_audtrain2,2023-11-11_18h26.45.217,AudTraining2,2021.2.3,Win32,60.45949214,,,,,,,,,,,,,,RegPatterns/19-ms_1_1_2_3_1_2_2_unit230.mp3,0,2,0,2,0,1,,,,,,,,,,,,,,,,,,
,,,,,,,,,,,,,train3_audtrain2,2023-11-11_18h26.45.217,AudTraining2,2021.2.3,Win32,60.45949214,,,,,,,,,,,,,,,,,,,,,1,3.8076,0,7,7,7,1,RegPatterns/19-ms_1_1_2_3_1_2_2_unit230.mp3,RegPatterns/19d-ms_1_1_2_1_3_2_2_unit230.mp3,,,,,,,,,
,,,,,,,,,,,,,train3_audtrain2,2023-11-11_18h26.45.217,AudTraining2,2021.2.3,Win32,60.45949214,,,,,,,,,,,,,,RegPatterns/14-ms_2_1_1_4_1_3_unit250.mp3,0,0,0,0,0,1,,,,,,,,,,,,,,,,,,
,,,,,,,,,,,,,train3_audtrain2,2023-11-11_18h26.45.217,AudTraining2,2021.2.3,Win32,60.45949214,,,,,,,,,,,,,,RegPatterns/14d-ms_2_1_1_4_3_1_unit250.mp3,2,1,0,1,0,1,,,,,,,,,,,,,,,,,,
,,,,,,,,,,,,,train3_audtrain2,2023-11-11_18h26.45.217,AudTraining2,2021.2.3,Win32,60.45949214,,,,,,,,,,,,,,RegPatterns/14-ms_2_1_1_4_1_3_unit250.mp3,0,2,0,2,0,1,,,,,,,,,,,,,,,,,,
,,,,,,,,,,,,,train3_audtrain2,2023-11-11_18h26.45.217,AudTraining2,2021.2.3,Win32,60.45949214,,,,,,,,,,,,,,,,,,,,,3,1.1375,0,8,8,4,1,RegPatterns/14-ms_2_1_1_4_1_3_unit250.mp3,RegPatterns/14d-ms_2_1_1_4_3_1_unit250.mp3,,,,,,,,,
,,,,,,,,,,,,,train3_audtrain2,2023-11-11_18h26.45.217,AudTraining2,2021.2.3,Win32,60.45949214,,,,,,,,,,,,,,RegPatterns/30-ms_3_1_2_2_1_1_2_unit230.mp3,0,0,0,0,0,1,,,,,,,,,,,,,,,,,,
,,,,,,,,,,,,,train3_audtrain2,2023-11-11_18h26.45.217,AudTraining2,2021.2.3,Win32,60.45949214,,,,,,,,,,,,,,RegPatterns/30d-ms_1_3_2_2_1_1_2_unit230.mp3,2,1,0,1,0,1,,,,,,,,,,,,,,,,,,
,,,,,,,,,,,,,train3_audtrain2,2023-11-11_18h26.45.217,AudTraining2,2021.2.3,Win32,60.45949214,,,,,,,,,,,,,,RegPatterns/30-ms_3_1_2_2_1_1_2_unit230.mp3,0,2,0,2,0,1,,,,,,,,,,,,,,,,,,
,,,,,,,,,,,,,train3_audtrain2,2023-11-11_18h26.45.217,AudTraining2,2021.2.3,Win32,60.45949214,,,,,,,,,,,,,,,,,,,,,2,0.0461,0,9,9,10,1,RegPatterns/30-ms_3_1_2_2_1_1_2_unit230.mp3,RegPatterns/30d-ms_1_3_2_2_1_1_2_unit230.mp3,,,,,,,,,
,,,,,,,,,,,,,train3_audtrain2,2023-11-11_18h26.45.217,AudTraining2,2021.2.3,Win32,60.45949214,,,,,,,,,,,,,,RegPatterns/18-ms_4_2_2_1_1_2_unit270.mp3,0,0,0,0,0,1,,,,,,,,,,,,,,,,,,
,,,,,,,,,,,,,train3_audtrain2,2023-11-11_18h26.45.217,AudTraining2,2021.2.3,Win32,60.45949214,,,,,,,,,,,,,,RegPatterns/18d-ms_4_2_2_2_1_1_unit270.mp3,2,1,0,1,0,1,,,,,,,,,,,,,,,,,,
,,,,,,,,,,,,,train3_audtrain2,2023-11-11_18h26.45.217,AudTraining2,2021.2.3,Win32,60.45949214,,,,,,,,,,,,,,RegPatterns/18-ms_4_2_2_1_1_2_unit270.mp3,0,2,0,2,0,1,,,,,,,,,,,,,,,,,,
,,,,,,,,,,,,,train3_audtrain2,2023-11-11_18h26.45.217,AudTraining2,2021.2.3,Win32,60.45949214,,,,,,,,,,,,,,,,,,,,,3,1.5514,0,10,10,6,1,RegPatterns/18-ms_4_2_2_1_1_2_unit270.mp3,RegPatterns/18d-ms_4_2_2_2_1_1_unit270.mp3,,,,,,,,,
,,,,,,,,,,,,,train3_audtrain2,2023-11-11_18h26.45.217,AudTraining2,2021.2.3,Win32,60.45949214,,,,,,,,,,,,,,RegPatterns/03d-ms_1_3_4_2_2_unit270.mp3,1,0,0,0,0,1,,,,,,,,,,,,,,,,,,
,,,,,,,,,,,,,train3_audtrain2,2023-11-11_18h26.45.217,AudTraining2,2021.2.3,Win32,60.45949214,,,,,,,,,,,,,,RegPatterns/03-ms_3_1_4_2_2_unit270.mp3,0,1,0,1,0,1,,,,,,,,,,,,,,,,,,
,,,,,,,,,,,,,train3_audtrain2,2023-11-11_18h26.45.217,AudTraining2,2021.2.3,Win32,60.45949214,,,,,,,,,,,,,,RegPatterns/03-ms_3_1_4_2_2_unit270.mp3,0,2,0,2,0,1,,,,,,,,,,,,,,,,,,
,,,,,,,,,,,,,train3_audtrain2,2023-11-11_18h26.45.217,AudTraining2,2021.2.3,Win32,60.45949214,,,,,,,,,,RegPatterns/Noise.mp3,RegPatterns/Noise.mp3,,,,,,,,,,2,0.9263,,,,,,,,g,1.0373,0,0,0,0,1,,
,,,,,,,,,,,,,train3_audtrain2,2023-11-11_18h26.45.217,AudTraining2,2021.2.3,Win32,60.45949214,,,,,,,,,,,,,,,,,,,,,,,0,11,11,1,1,RegPatterns/03-ms_3_1_4_2_2_unit270.mp3,RegPatterns/03d-ms_1_3_4_2_2_unit270.mp3,,,,,,,,,
,,,,,,,,,,,,,train3_audtrain2,2023-11-11_18h26.45.217,AudTraining2,2021.2.3,Win32,60.45949214,,,,,,,,,,,,,,RegPatterns/26d-ms_1_1_2_1_1_2_4_unit250.mp3,1,0,0,0,0,1,,,,,,,,,,,,,,,,,,
,,,,,,,,,,,,,train3_audtrain2,2023-11-11_18h26.45.217,AudTraining2,2021.2.3,Win32,60.45949214,,,,,,,,,,,,,,RegPatterns/26-ms_1_1_2_2_1_1_4_unit250.mp3,0,1,0,1,0,1,,,,,,,,,,,,,,,,,,
,,,,,,,,,,,,,train3_audtrain2,2023-11-11_18h26.45.217,AudTraining2,2021.2.3,Win32,60.45949214,,,,,,,,,,,,,,RegPatterns/26-ms_1_1_2_2_1_1_4_unit250.mp3,0,2,0,2,0,1,,,,,,,,,,,,,,,,,,
,,,,,,,,,,,,,train3_audtrain2,2023-11-11_18h26.45.217,AudTraining2,2021.2.3,Win32,60.45949214,,,,,,,,,,,,,,,,,,,,,1,1.5575,1,0,12,8,1,RegPatterns/26-ms_1_1_2_2_1_1_4_unit250.mp3,RegPatterns/26d-ms_1_1_2_1_1_2_4_unit250.mp3,,,,,,,,,
,,,,,,,,,,,,,train3_audtrain2,2023-11-11_18h26.45.217,AudTraining2,2021.2.3,Win32,60.45949214,,,,,,,,,,,,,,RegPatterns/02d-ms_3_1_4_3_1_unit250.mp3,1,0,0,0,0,1,,,,,,,,,,,,,,,,,,
,,,,,,,,,,,,,train3_audtrain2,2023-11-11_18h26.45.217,AudTraining2,2021.2.3,Win32,60.45949214,,,,,,,,,,,,,,RegPatterns/02-ms_3_1_4_1_3_unit250.mp3,0,1,0,1,0,1,,,,,,,,,,,,,,,,,,
,,,,,,,,,,,,,train3_audtrain2,2023-11-11_18h26.45.217,AudTraining2,2021.2.3,Win32,60.45949214,,,,,,,,,,,,,,RegPatterns/02-ms_3_1_4_1_3_unit250.mp3,0,2,0,2,0,1,,,,,,,,,,,,,,,,,,
,,,,,,,,,,,,,train3_audtrain2,2023-11-11_18h26.45.217,AudTraining2,2021.2.3,Win32,60.45949214,,,,,,,,,,,,,,,,,,,,,2,0.4712,1,1,13,0,1,RegPatterns/02-ms_3_1_4_1_3_unit250.mp3,RegPatterns/02d-ms_3_1_4_3_1_unit250.mp3,,,,,,,,,
,,,,,,,,,,,,,train3_audtrain2,2023-11-11_18h26.45.217,AudTraining2,2021.2.3,Win32,60.45949214,,,,,,,,,,,,,,RegPatterns/14d-ms_2_1_1_4_3_1_unit250.mp3,1,0,0,0,0,1,,,,,,,,,,,,,,,,,,
,,,,,,,,,,,,,train3_audtrain2,2023-11-11_18h26.45.217,AudTraining2,2021.2.3,Win32,60.45949214,,,,,,,,,,,,,,RegPatterns/14-ms_2_1_1_4_1_3_unit250.mp3,0,1,0,1,0,1,,,,,,,,,,,,,,,,,,
,,,,,,,,,,,,,train3_audtrain2,2023-11-11_18h26.45.217,AudTraining2,2021.2.3,Win32,60.45949214,,,,,,,,,,,,,,RegPatterns/14-ms_2_1_1_4_1_3_unit250.mp3,0,2,0,2,0,1,,,,,,,,,,,,,,,,,,
,,,,,,,,,,,,,train3_audtrain2,2023-11-11_18h26.45.217,AudTraining2,2021.2.3,Win32,60.45949214,,,,,,,,,,,,,,,,,,,,,3,0.5552,1,2,14,4,1,RegPatterns/14-ms_2_1_1_4_1_3_unit250.mp3,RegPatterns/14d-ms_2_1_1_4_3_1_unit250.mp3,,,,,,,,,
,,,,,,,,,,,,,train3_audtrain2,2023-11-11_18h26.45.217,AudTraining2,2021.2.3,Win32,60.45949214,,,,,,,,,,,,,,RegPatterns/19-ms_1_1_2_3_1_2_2_unit230.mp3,0,0,0,0,0,1,,,,,,,,,,,,,,,,,,
,,,,,,,,,,,,,train3_audtrain2,2023-11-11_18h26.45.217,AudTraining2,2021.2.3,Win32,60.45949214,,,,,,,,,,,,,,RegPatterns/19-ms_1_1_2_3_1_2_2_unit230.mp3,0,1,0,1,0,1,,,,,,,,,,,,,,,,,,
,,,,,,,,,,,,,train3_audtrain2,2023-11-11_18h26.45.217,AudTraining2,2021.2.3,Win32,60.45949214,,,,,,,,,,,,,,RegPatterns/19d-ms_1_1_2_1_3_2_2_unit230.mp3,3,2,0,2,0,1,,,,,,,,,,,,,,,,,,
,,,,,,,,,,,,,train3_audtrain2,2023-11-11_18h26.45.217,AudTraining2,2021.2.3,Win32,60.45949214,,,,,,,,,,,,,,,,,,,,,1,48.6898,1,3,15,7,1,RegPatterns/19-ms_1_1_2_3_1_2_2_unit230.mp3,RegPatterns/19d-ms_1_1_2_1_3_2_2_unit230.mp3,,,,,,,,,
,,,,,,,,,,,,,train3_audtrain2,2023-11-11_18h26.45.217,AudTraining2,2021.2.3,Win32,60.45949214,,,,,,,,,,,,,,RegPatterns/03-ms_3_1_4_2_2_unit270.mp3,0,0,0,0,0,1,,,,,,,,,,,,,,,,,,
,,,,,,,,,,,,,train3_audtrain2,2023-11-11_18h26.45.217,AudTraining2,2021.2.3,Win32,60.45949214,,,,,,,,,,,,,,RegPatterns/03d-ms_1_3_4_2_2_unit270.mp3,2,1,0,1,0,1,,,,,,,,,,,,,,,,,,
,,,,,,,,,,,,,train3_audtrain2,2023-11-11_18h26.45.217,AudTraining2,2021.2.3,Win32,60.45949214,,,,,,,,,,,,,,RegPatterns/03-ms_3_1_4_2_2_unit270.mp3,0,2,0,2,0,1,,,,,,,,,,,,,,,,,,
,,,,,,,,,,,,,train3_audtrain2,2023-11-11_18h26.45.217,AudTraining2,2021.2.3,Win32,60.45949214,,,,,,,,,,,,,,,,,,,,,2,1.0476,1,4,16,1,1,RegPatterns/03-ms_3_1_4_2_2_unit270.mp3,RegPatterns/03d-ms_1_3_4_2_2_unit270.mp3,,,,,,,,,
,,,,,,,,,,,,,train3_audtrain2,2023-11-11_18h26.45.217,AudTraining2,2021.2.3,Win32,60.45949214,,,,,,,,,,,,,,RegPatterns/30d-ms_1_3_2_2_1_1_2_unit230.mp3,1,0,0,0,0,1,,,,,,,,,,,,,,,,,,
,,,,,,,,,,,,,train3_audtrain2,2023-11-11_18h26.45.217,AudTraining2,2021.2.3,Win32,60.45949214,,,,,,,,,,,,,,RegPatterns/30-ms_3_1_2_2_1_1_2_unit230.mp3,0,1,0,1,0,1,,,,,,,,,,,,,,,,,,
,,,,,,,,,,,,,train3_audtrain2,2023-11-11_18h26.45.217,AudTraining2,2021.2.3,Win32,60.45949214,,,,,,,,,,,,,,RegPatterns/30-ms_3_1_2_2_1_1_2_unit230.mp3,0,2,0,2,0,1,,,,,,,,,,,,,,,,,,
,,,,,,,,,,,,,train3_audtrain2,2023-11-11_18h26.45.217,AudTraining2,2021.2.3,Win32,60.45949214,,,,,,,,,,,,,,,,,,,,,3,1.8021,1,5,17,10,1,RegPatterns/30-ms_3_1_2_2_1_1_2_unit230.mp3,RegPatterns/30d-ms_1_3_2_2_1_1_2_unit230.mp3,,,,,,,,,
,,,,,,,,,,,,,train3_audtrain2,2023-11-11_18h26.45.217,AudTraining2,2021.2.3,Win32,60.45949214,,,,,,,,,,,,,,RegPatterns/09-ms_2_1_1_1_3_4_unit270.mp3,0,0,0,0,0,1,,,,,,,,,,,,,,,,,,
,,,,,,,,,,,,,train3_audtrain2,2023-11-11_18h26.45.217,AudTraining2,2021.2.3,Win32,60.45949214,,,,,,,,,,,,,,RegPatterns/09d-ms_2_1_1_3_1_4_unit270.mp3,2,1,0,1,0,1,,,,,,,,,,,,,,,,,,
,,,,,,,,,,,,,train3_audtrain2,2023-11-11_18h26.45.217,AudTraining2,2021.2.3,Win32,60.45949214,,,,,,,,,,,,,,RegPatterns/09-ms_2_1_1_1_3_4_unit270.mp3,0,2,0,2,0,1,,,,,,,,,,,,,,,,,,
,,,,,,,,,,,,,train3_audtrain2,2023-11-11_18h26.45.217,AudTraining2,2021.2.3,Win32,60.45949214,,,,,,,,,,,,,,,,,,,,,1,0.5507,1,6,18,2,1,RegPatterns/09-ms_2_1_1_1_3_4_unit270.mp3,RegPatterns/09d-ms_2_1_1_3_1_4_unit270.mp3,,,,,,,,,
,,,,,,,,,,,,,train3_audtrain2,2023-11-11_18h26.45.217,AudTraining2,2021.2.3,Win32,60.45949214,,,,,,,,,,,,,,RegPatterns/20d-ms_2_1_1_2_2_1_3_unit230.mp3,1,0,0,0,0,1,,,,,,,,,,,,,,,,,,
,,,,,,,,,,,,,train3_audtrain2,2023-11-11_18h26.45.217,AudTraining2,2021.2.3,Win32,60.45949214,,,,,,,,,,,,,,RegPatterns/20-ms_2_1_1_2_2_3_1_unit230.mp3,0,1,0,1,0,1,,,,,,,,,,,,,,,,,,
,,,,,,,,,,,,,train3_audtrain2,2023-11-11_18h26.45.217,AudTraining2,2021.2.3,Win32,60.45949214,,,,,,,,,,,,,,RegPatterns/20-ms_2_1_1_2_2_3_1_unit230.mp3,0,2,0,2,0,1,,,,,,,,,,,,,,,,,,
,,,,,,,,,,,,,train3_audtrain2,2023-11-11_18h26.45.217,AudTraining2,2021.2.3,Win32,60.45949214,,,,,,,,,,,,,,,,,,,,,3,1.2598,1,7,19,11,1,RegPatterns/20-ms_2_1_1_2_2_3_1_unit230.mp3,RegPatterns/20d-ms_2_1_1_2_2_1_3_unit230.mp3,,,,,,,,,
,,,,,,,,,,,,,train3_audtrain2,2023-11-11_18h26.45.217,AudTraining2,2021.2.3,Win32,60.45949214,,,,,,,,,,,,,,RegPatterns/29d-ms_3_1_2_1_1_3_1_unit250.mp3,1,0,0,0,0,1,,,,,,,,,,,,,,,,,,
,,,,,,,,,,,,,train3_audtrain2,2023-11-11_18h26.45.217,AudTraining2,2021.2.3,Win32,60.45949214,,,,,,,,,,,,,,RegPatterns/29-ms_3_1_2_1_1_1_3_unit250.mp3,0,1,0,1,0,1,,,,,,,,,,,,,,,,,,
,,,,,,,,,,,,,train3_audtrain2,2023-11-11_18h26.45.217,AudTraining2,2021.2.3,Win32,60.45949214,,,,,,,,,,,,,,RegPatterns/29-ms_3_1_2_1_1_1_3_unit250.mp3,0,2,0,2,0,1,,,,,,,,,,,,,,,,,,
,,,,,,,,,,,,,train3_audtrain2,2023-11-11_18h26.45.217,AudTraining2,2021.2.3,Win32,60.45949214,,,,,,,,,,,,,,,,,,,,,1,0.751,1,8,20,9,1,RegPatterns/29-ms_3_1_2_1_1_1_3_unit250.mp3,RegPatterns/29d-ms_3_1_2_1_1_3_1_unit250.mp3,,,,,,,,,
,,,,,,,,,,,,,train3_audtrain2,2023-11-11_18h26.45.217,AudTraining2,2021.2.3,Win32,60.45949214,,,,,,,,,,,,,,RegPatterns/18-ms_4_2_2_1_1_2_unit270.mp3,0,0,0,0,0,1,,,,,,,,,,,,,,,,,,
,,,,,,,,,,,,,train3_audtrain2,2023-11-11_18h26.45.217,AudTraining2,2021.2.3,Win32,60.45949214,,,,,,,,,,,,,,RegPatterns/18-ms_4_2_2_1_1_2_unit270.mp3,0,1,0,1,0,1,,,,,,,,,,,,,,,,,,
,,,,,,,,,,,,,train3_audtrain2,2023-11-11_18h26.45.217,AudTraining2,2021.2.3,Win32,60.45949214,,,,,,,,,,,,,,RegPatterns/18d-ms_4_2_2_2_1_1_unit270.mp3,3,2,0,2,0,1,,,,,,,,,,,,,,,,,,
,,,,,,,,,,,,,train3_audtrain2,2023-11-11_18h26.45.217,AudTraining2,2021.2.3,Win32,60.45949214,,,,,,,,,,,,,,,,,,,,,3,1.8275,1,9,21,6,1,RegPatterns/18-ms_4_2_2_1_1_2_unit270.mp3,RegPatterns/18d-ms_4_2_2_2_1_1_unit270.mp3,,,,,,,,,
,,,,,,,,,,,,,train3_audtrain2,2023-11-11_18h26.45.217,AudTraining2,2021.2.3,Win32,60.45949214,,,,,,,,,,,,,,RegPatterns/12d-ms_3_1_3_1_2_2_unit270.mp3,1,0,0,0,0,1,,,,,,,,,,,,,,,,,,
,,,,,,,,,,,,,train3_audtrain2,2023-11-11_18h26.45.217,AudTraining2,2021.2.3,Win32,60.45949214,,,,,,,,,,,,,,RegPatterns/12-ms_3_1_1_3_2_2_unit270.mp3,0,1,0,1,0,1,,,,,,,,,,,,,,,,,,
,,,,,,,,,,,,,train3_audtrain2,2023-11-11_18h26.45.217,AudTraining2,2021.2.3,Win32,60.45949214,,,,,,,,,,,,,,RegPatterns/12-ms_3_1_1_3_2_2_unit270.mp3,0,2,0,2,0,1,,,,,,,,,,,,,,,,,,
,,,,,,,,,,,,,train3_audtrain2,2023-11-11_18h26.45.217,AudTraining2,2021.2.3,Win32,60.45949214,,,,,,,,,,,,,,,,,,,,,1,2.9004,1,10,22,3,1,RegPatterns/12-ms_3_1_1_3_2_2_unit270.mp3,RegPatterns/12d-ms_3_1_3_1_2_2_unit270.mp3,,,,,,,,,
,,,,,,,,,,,,,train3_audtrain2,2023-11-11_18h26.45.217,AudTraining2,2021.2.3,Win32,60.45949214,,,,,,,,,,,,,,RegPatterns/16-ms_3_1_2_2_1_3_unit230.mp3,0,0,0,0,0,1,,,,,,,,,,,,,,,,,,
,,,,,,,,,,,,,train3_audtrain2,2023-11-11_18h26.45.217,AudTraining2,2021.2.3,Win32,60.45949214,,,,,,,,,,,,,,RegPatterns/16d-ms_3_1_2_2_3_1_unit230.mp3,2,1,0,1,0,1,,,,,,,,,,,,,,,,,,
,,,,,,,,,,,,,train3_audtrain2,2023-11-11_18h26.45.217,AudTraining2,2021.2.3,Win32,60.45949214,,,,,,,,,,,,,,RegPatterns/16-ms_3_1_2_2_1_3_unit230.mp3,0,2,0,2,0,1,,,,,,,,,,,,,,,,,,
,,,,,,,,,,,,,train3_audtrain2,2023-11-11_18h26.45.217,AudTraining2,2021.2.3,Win32,60.45949214,,,,,,,,,,RegPatterns/Noise.mp3,RegPatterns/Noise.mp3,,,,,,,,,,2,1.0246,,,,,,,,g,0.5205,0,0,0,0,1,,
,,,,,,,,,,,,,train3_audtrain2,2023-11-11_18h26.45.217,AudTraining2,2021.2.3,Win32,60.45949214,,,,,,,,,,,,,,,,,,,,,,,1,11,23,5,1,RegPatterns/16-ms_3_1_2_2_1_3_unit230.mp3,RegPatterns/16d-ms_3_1_2_2_3_1_unit230.mp3,,,,,,,,,
,,,,,,,,,,,,,train3_audtrain2,2023-11-11_18h26.45.217,AudTraining2,2021.2.3,Win32,60.45949214,,,,,,,,,,,,,,RegPatterns/18d-ms_4_2_2_2_1_1_unit270.mp3,1,0,0,0,0,1,,,,,,,,,,,,,,,,,,
,,,,,,,,,,,,,train3_audtrain2,2023-11-11_18h26.45.217,AudTraining2,2021.2.3,Win32,60.45949214,,,,,,,,,,,,,,RegPatterns/18-ms_4_2_2_1_1_2_unit270.mp3,0,1,0,1,0,1,,,,,,,,,,,,,,,,,,
,,,,,,,,,,,,,train3_audtrain2,2023-11-11_18h26.45.217,AudTraining2,2021.2.3,Win32,60.45949214,,,,,,,,,,,,,,RegPatterns/18-ms_4_2_2_1_1_2_unit270.mp3,0,2,0,2,0,1,,,,,,,,,,,,,,,,,,
,,,,,,,,,,,,,train3_audtrain2,2023-11-11_18h26.45.217,AudTraining2,2021.2.3,Win32,60.45949214,,,,,,,,,,,,,,,,,,,,,1,1.9447,2,0,24,6,1,RegPatterns/18-ms_4_2_2_1_1_2_unit270.mp3,RegPatterns/18d-ms_4_2_2_2_1_1_unit270.mp3,,,,,,,,,
,,,,,,,,,,,,,train3_audtrain2,2023-11-11_18h26.45.217,AudTraining2,2021.2.3,Win32,60.45949214,,,,,,,,,,,,,,RegPatterns/03-ms_3_1_4_2_2_unit270.mp3,0,0,0,0,0,1,,,,,,,,,,,,,,,,,,
,,,,,,,,,,,,,train3_audtrain2,2023-11-11_18h26.45.217,AudTraining2,2021.2.3,Win32,60.45949214,,,,,,,,,,,,,,RegPatterns/03-ms_3_1_4_2_2_unit270.mp3,0,1,0,1,0,1,,,,,,,,,,,,,,,,,,
,,,,,,,,,,,,,train3_audtrain2,2023-11-11_18h26.45.217,AudTraining2,2021.2.3,Win32,60.45949214,,,,,,,,,,,,,,RegPatterns/03d-ms_1_3_4_2_2_unit270.mp3,3,2,0,2,0,1,,,,,,,,,,,,,,,,,,
,,,,,,,,,,,,,train3_audtrain2,2023-11-11_18h26.45.217,AudTraining2,2021.2.3,Win32,60.45949214,,,,,,,,,,,,,,,,,,,,,2,0.5343,2,1,25,1,1,RegPatterns/03-ms_3_1_4_2_2_unit270.mp3,RegPatterns/03d-ms_1_3_4_2_2_unit270.mp3,,,,,,,,,
,,,,,,,,,,,,,train3_audtrain2,2023-11-11_18h26.45.217,AudTraining2,2021.2.3,Win32,60.45949214,,,,,,,,,,,,,,RegPatterns/19d-ms_1_1_2_1_3_2_2_unit230.mp3,1,0,0,0,0,1,,,,,,,,,,,,,,,,,,
,,,,,,,,,,,,,train3_audtrain2,2023-11-11_18h26.45.217,AudTraining2,2021.2.3,Win32,60.45949214,,,,,,,,,,,,,,RegPatterns/19-ms_1_1_2_3_1_2_2_unit230.mp3,0,1,0,1,0,1,,,,,,,,,,,,,,,,,,
,,,,,,,,,,,,,train3_audtrain2,2023-11-11_18h26.45.217,AudTraining2,2021.2.3,Win32,60.45949214,,,,,,,,,,,,,,RegPatterns/19-ms_1_1_2_3_1_2_2_unit230.mp3,0,2,0,2,0,1,,,,,,,,,,,,,,,,,,
,,,,,,,,,,,,,train3_audtrain2,2023-11-11_18h26.45.217,AudTraining2,2021.2.3,Win32,60.45949214,,,,,,,,,,,,,,,,,,,,,3,1.3267,2,2,26,7,1,RegPatterns/19-ms_1_1_2_3_1_2_2_unit230.mp3,RegPatterns/19d-ms_1_1_2_1_3_2_2_unit230.mp3,,,,,,,,,
,,,,,,,,,,,,,train3_audtrain2,2023-11-11_18h26.45.217,AudTraining2,2021.2.3,Win32,60.45949214,,,,,,,,,,,,,,RegPatterns/14-ms_2_1_1_4_1_3_unit250.mp3,0,0,0,0,0,1,,,,,,,,,,,,,,,,,,
,,,,,,,,,,,,,train3_audtrain2,2023-11-11_18h26.45.217,AudTraining2,2021.2.3,Win32,60.45949214,,,,,,,,,,,,,,RegPatterns/14-ms_2_1_1_4_1_3_unit250.mp3,0,1,0,1,0,1,,,,,,,,,,,,,,,,,,
,,,,,,,,,,,,,train3_audtrain2,2023-11-11_18h26.45.217,AudTraining2,2021.2.3,Win32,60.45949214,,,,,,,,,,,,,,RegPatterns/14d-ms_2_1_1_4_3_1_unit250.mp3,3,2,0,2,0,1,,,,,,,,,,,,,,,,,,
,,,,,,,,,,,,,train3_audtrain2,2023-11-11_18h26.45.217,AudTraining2,2021.2.3,Win32,60.45949214,,,,,,,,,,,,,,,,,,,,,3,0.8261,2,3,27,4,1,RegPatterns/14-ms_2_1_1_4_1_3_unit250.mp3,RegPatterns/14d-ms_2_1_1_4_3_1_unit250.mp3,,,,,,,,,
,,,,,,,,,,,,,train3_audtrain2,2023-11-11_18h26.45.217,AudTraining2,2021.2.3,Win32,60.45949214,,,,,,,,,,,,,,RegPatterns/12-ms_3_1_1_3_2_2_unit270.mp3,0,0,0,0,0,1,,,,,,,,,,,,,,,,,,
,,,,,,,,,,,,,train3_audtrain2,2023-11-11_18h26.45.217,AudTraining2,2021.2.3,Win32,60.45949214,,,,,,,,,,,,,,RegPatterns/12d-ms_3_1_3_1_2_2_unit270.mp3,2,1,0,1,0,1,,,,,,,,,,,,,,,,,,
,,,,,,,,,,,,,train3_audtrain2,2023-11-11_18h26.45.217,AudTraining2,2021.2.3,Win32,60.45949214,,,,,,,,,,,,,,RegPatterns/12-ms_3_1_1_3_2_2_unit270.mp3,0,2,0,2,0,1,,,,,,,,,,,,,,,,,,
,,,,,,,,,,,,,train3_audtrain2,2023-11-11_18h26.45.217,AudTraining2,2021.2.3,Win32,60.45949214,,,,,,,,,,,,,,,,,,,,,1,1.1938,2,4,28,3,1,RegPatterns/12-ms_3_1_1_3_2_2_unit270.mp3,RegPatterns/12d-ms_3_1_3_1_2_2_unit270.mp3,,,,,,,,,
,,,,,,,,,,,,,train3_audtrain2,2023-11-11_18h26.45.217,AudTraining2,2021.2.3,Win32,60.45949214,,,,,,,,,,,,,,RegPatterns/20-ms_2_1_1_2_2_3_1_unit230.mp3,0,0,0,0,0,1,,,,,,,,,,,,,,,,,,
,,,,,,,,,,,,,train3_audtrain2,2023-11-11_18h26.45.217,AudTraining2,2021.2.3,Win32,60.45949214,,,,,,,,,,,,,,RegPatterns/20-ms_2_1_1_2_2_3_1_unit230.mp3,0,1,0,1,0,1,,,,,,,,,,,,,,,,,,
,,,,,,,,,,,,,train3_audtrain2,2023-11-11_18h26.45.217,AudTraining2,2021.2.3,Win32,60.45949214,,,,,,,,,,,,,,RegPatterns/20d-ms_2_1_1_2_2_1_3_unit230.mp3,3,2,0,2,0,1,,,,,,,,,,,,,,,,,,
,,,,,,,,,,,,,train3_audtrain2,2023-11-11_18h26.45.217,AudTraining2,2021.2.3,Win32,60.45949214,,,,,,,,,,,,,,,,,,,,,2,0.5124,2,5,29,11,1,RegPatterns/20-ms_2_1_1_2_2_3_1_unit230.mp3,RegPatterns/20d-ms_2_1_1_2_2_1_3_unit230.mp3,,,,,,,,,
,,,,,,,,,,,,,train3_audtrain2,2023-11-11_18h26.45.217,AudTraining2,2021.2.3,Win32,60.45949214,,,,,,,,,,,,,,RegPatterns/26-ms_1_1_2_2_1_1_4_unit250.mp3,0,0,0,0,0,1,,,,,,,,,,,,,,,,,,
,,,,,,,,,,,,,train3_audtrain2,2023-11-11_18h26.45.217,AudTraining2,2021.2.3,Win32,60.45949214,,,,,,,,,,,,,,RegPatterns/26-ms_1_1_2_2_1_1_4_unit250.mp3,0,1,0,1,0,1,,,,,,,,,,,,,,,,,,
,,,,,,,,,,,,,train3_audtrain2,2023-11-11_18h26.45.217,AudTraining2,2021.2.3,Win32,60.45949214,,,,,,,,,,,,,,RegPatterns/26d-ms_1_1_2_1_1_2_4_unit250.mp3,3,2,0,2,0,1,,,,,,,,,,,,,,,,,,
,,,,,,,,,,,,,train3_audtrain2,2023-11-11_18h26.45.217,AudTraining2,2021.2.3,Win32,60.45949214,,,,,,,,,,,,,,,,,,,,,1,7.5554,2,6,30,8,1,RegPatterns/26-ms_1_1_2_2_1_1_4_unit250.mp3,RegPatterns/26d-ms_1_1_2_1_1_2_4_unit250.mp3,,,,,,,,,
,,,,,,,,,,,,,train3_audtrain2,2023-11-11_18h26.45.217,AudTraining2,2021.2.3,Win32,60.45949214,,,,,,,,,,,,,,RegPatterns/02-ms_3_1_4_1_3_unit250.mp3,0,0,0,0,0,1,,,,,,,,,,,,,,,,,,
,,,,,,,,,,,,,train3_audtrain2,2023-11-11_18h26.45.217,AudTraining2,2021.2.3,Win32,60.45949214,,,,,,,,,,,,,,RegPatterns/02-ms_3_1_4_1_3_unit250.mp3,0,1,0,1,0,1,,,,,,,,,,,,,,,,,,
,,,,,,,,,,,,,train3_audtrain2,2023-11-11_18h26.45.217,AudTraining2,2021.2.3,Win32,60.45949214,,,,,,,,,,,,,,RegPatterns/02d-ms_3_1_4_3_1_unit250.mp3,3,2,0,2,0,1,,,,,,,,,,,,,,,,,,
,,,,,,,,,,,,,train3_audtrain2,2023-11-11_18h26.45.217,AudTraining2,2021.2.3,Win32,60.45949214,,,,,,,,,,,,,,,,,,,,,3,1.5194,2,7,31,0,1,RegPatterns/02-ms_3_1_4_1_3_unit250.mp3,RegPatterns/02d-ms_3_1_4_3_1_unit250.mp3,,,,,,,,,
,,,,,,,,,,,,,train3_audtrain2,2023-11-11_18h26.45.217,AudTraining2,2021.2.3,Win32,60.45949214,,,,,,,,,,,,,,RegPatterns/30-ms_3_1_2_2_1_1_2_unit230.mp3,0,0,0,0,0,1,,,,,,,,,,,,,,,,,,
,,,,,,,,,,,,,train3_audtrain2,2023-11-11_18h26.45.217,AudTraining2,2021.2.3,Win32,60.45949214,,,,,,,,,,,,,,RegPatterns/30-ms_3_1_2_2_1_1_2_unit230.mp3,0,1,0,1,0,1,,,,,,,,,,,,,,,,,,
,,,,,,,,,,,,,train3_audtrain2,2023-11-11_18h26.45.217,AudTraining2,2021.2.3,Win32,60.45949214,,,,,,,,,,,,,,RegPatterns/30d-ms_1_3_2_2_1_1_2_unit230.mp3,3,2,0,2,0,1,,,,,,,,,,,,,,,,,,
,,,,,,,,,,,,,train3_audtrain2,2023-11-11_18h26.45.217,AudTraining2,2021.2.3,Win32,60.45949214,,,,,,,,,,,,,,,,,,,,,1,1.6812,2,8,32,10,1,RegPatterns/30-ms_3_1_2_2_1_1_2_unit230.mp3,RegPatterns/30d-ms_1_3_2_2_1_1_2_unit230.mp3,,,,,,,,,
,,,,,,,,,,,,,train3_audtrain2,2023-11-11_18h26.45.217,AudTraining2,2021.2.3,Win32,60.45949214,,,,,,,,,,,,,,RegPatterns/29-ms_3_1_2_1_1_1_3_unit250.mp3,0,0,0,0,0,1,,,,,,,,,,,,,,,,,,
,,,,,,,,,,,,,train3_audtrain2,2023-11-11_18h26.45.217,AudTraining2,2021.2.3,Win32,60.45949214,,,,,,,,,,,,,,RegPatterns/29-ms_3_1_2_1_1_1_3_unit250.mp3,0,1,0,1,0,1,,,,,,,,,,,,,,,,,,
,,,,,,,,,,,,,train3_audtrain2,2023-11-11_18h26.45.217,AudTraining2,2021.2.3,Win32,60.45949214,,,,,,,,,,,,,,RegPatterns/29d-ms_3_1_2_1_1_3_1_unit250.mp3,3,2,0,2,0,1,,,,,,,,,,,,,,,,,,
,,,,,,,,,,,,,train3_audtrain2,2023-11-11_18h26.45.217,AudTraining2,2021.2.3,Win32,60.45949214,,,,,,,,,,,,,,,,,,,,,2,3.7467,2,9,33,9,1,RegPatterns/29-ms_3_1_2_1_1_1_3_unit250.mp3,RegPatterns/29d-ms_3_1_2_1_1_3_1_unit250.mp3,,,,,,,,,
,,,,,,,,,,,,,train3_audtrain2,2023-11-11_18h26.45.217,AudTraining2,2021.2.3,Win32,60.45949214,,,,,,,,,,,,,,RegPatterns/09-ms_2_1_1_1_3_4_unit270.mp3,0,0,0,0,0,1,,,,,,,,,,,,,,,,,,
,,,,,,,,,,,,,train3_audtrain2,2023-11-11_18h26.45.217,AudTraining2,2021.2.3,Win32,60.45949214,,,,,,,,,,,,,,RegPatterns/09-ms_2_1_1_1_3_4_unit270.mp3,0,1,0,1,0,1,,,,,,,,,,,,,,,,,,
,,,,,,,,,,,,,train3_audtrain2,2023-11-11_18h26.45.217,AudTraining2,2021.2.3,Win32,60.45949214,,,,,,,,,,,,,,RegPatterns/09d-ms_2_1_1_3_1_4_unit270.mp3,3,2,0,2,0,1,,,,,,,,,,,,,,,,,,
,,,,,,,,,,,,,train3_audtrain2,2023-11-11_18h26.45.217,AudTraining2,2021.2.3,Win32,60.45949214,,,,,,,,,,,,,,,,,,,,,3,9.1454,2,10,34,2,1,RegPatterns/09-ms_2_1_1_1_3_4_unit270.mp3,RegPatterns/09d-ms_2_1_1_3_1_4_unit270.mp3,,,,,,,,,
,,,,,,,,,,,,,train3_audtrain2,2023-11-11_18h26.45.217,AudTraining2,2021.2.3,Win32,60.45949214,,,,,,,,,,,,,,RegPatterns/16d-ms_3_1_2_2_3_1_unit230.mp3,1,0,0,0,0,1,,,,,,,,,,,,,,,,,,
,,,,,,,,,,,,,train3_audtrain2,2023-11-11_18h26.45.217,AudTraining2,2021.2.3,Win32,60.45949214,,,,,,,,,,,,,,RegPatterns/16-ms_3_1_2_2_1_3_unit230.mp3,0,1,0,1,0,1,,,,,,,,,,,,,,,,,,
,,,,,,,,,,,,,train3_audtrain2,2023-11-11_18h26.45.217,AudTraining2,2021.2.3,Win32,60.45949214,,,,,,,,,,,,,,RegPatterns/16-ms_3_1_2_2_1_3_unit230.mp3,0,2,0,2,0,1,,,,,,,,,,,,,,,,,,
,,,,,,,,,,,,,train3_audtrain2,2023-11-11_18h26.45.217,AudTraining2,2021.2.3,Win32,60.45949214,,,,,,,,,,,,,,,,,,,,,1,4.9017,2,11,35,5,1,RegPatterns/16-ms_3_1_2_2_1_3_unit230.mp3,RegPatterns/16d-ms_3_1_2_2_3_1_unit230.mp3,,,,,,,,,
,,,,,,,,,,,,,train3_audtrain2,2023-11-11_18h26.45.217,AudTraining2,2021.2.3,Win32,60.45949214,,,,,,,,,,,,,,,,,,,,,,,,,,,,,,,,,,,,,space,11.0383
