key_resp.keys,key_resp.rt,key_resp_8.keys,key_resp_8.rt,key_resp_9.keys,key_resp_9.rt,trials.thisRepN,trials.thisTrialN,trials.thisN,trials.thisIndex,trials.ran,volstandard,voldeviant,participant,date,expName,psychopyVersion,OS,frameRate,key_resp_2.keys,key_resp_2.rt,key_resp_4.keys,key_resp_4.rt,trials_5.thisRepN,trials_5.thisTrialN,trials_5.thisN,trials_5.thisIndex,trials_5.ran,RegStandardPitch,RegDeviantPitch,key_resp_5.keys,key_resp_5.rt,RegAudSequence,diff-reg,trials_2.thisRepN,trials_2.thisTrialN,trials_2.thisN,trials_2.thisIndex,trials_2.ran,key_resp_7.keys,key_resp_7.rt,trials_3.thisRepN,trials_3.thisTrialN,trials_3.thisN,trials_3.thisIndex,trials_3.ran,standard,devient,key_resp_6.keys,key_resp_6.rt,trials_4.thisRepN,trials_4.thisTrialN,trials_4.thisN,trials_4.thisIndex,trials_4.ran,key_resp_10.keys,key_resp_10.rt
space,3.6226,space,1.165,space,0.8896,0,0,0,0,1,RegPatterns/01-ms_2_2_4_1_3_unit230.mp3,RegPatterns/01d-ms_2_2_4_3_1_unit230.mp3,train23_audtrian1,2023-11-16_11h08.01.297,AudTraining1,2021.2.3,Win32,62.42197253,,,,,,,,,,,,,,,,,,,,,,,,,,,,,,,,,,,,,,
,,,,,,,,,,,,,train23_audtrian1,2023-11-16_11h08.01.297,AudTraining1,2021.2.3,Win32,62.42197253,space,1.6286,g,0.9934,0,0,0,0,1,RegPatterns/Noise.mp3,RegPatterns/Noise.mp3,,,,,,,,,,,,,,,,,,,,,,,,,,,
,,,,,,,,,,,,,train23_audtrian1,2023-11-16_11h08.01.297,AudTraining1,2021.2.3,Win32,62.42197253,,,,,,,,,,,,space,2.6437,RegPatterns/07d-ms_1_1_2_1_3_4_unit230.mp3,1,0,0,0,0,1,,,,,,,,,,,,,,,,,,
,,,,,,,,,,,,,train23_audtrian1,2023-11-16_11h08.01.297,AudTraining1,2021.2.3,Win32,62.42197253,,,,,,,,,,,,,,RegPatterns/07-ms_1_1_2_3_1_4_unit230.mp3,0,1,0,1,0,1,,,,,,,,,,,,,,,,,,
,,,,,,,,,,,,,train23_audtrian1,2023-11-16_11h08.01.297,AudTraining1,2021.2.3,Win32,62.42197253,,,,,,,,,,,,,,RegPatterns/07-ms_1_1_2_3_1_4_unit230.mp3,0,2,0,2,0,1,,,,,,,,,,,,,,,,,,
,,,,,,,,,,,,,train23_audtrian1,2023-11-16_11h08.01.297,AudTraining1,2021.2.3,Win32,62.42197253,,,,,,,,,,,,,,,,,,,,,1,0.3854,0,0,0,2,1,RegPatterns/07-ms_1_1_2_3_1_4_unit230.mp3,RegPatterns/07d-ms_1_1_2_1_3_4_unit230.mp3,,,,,,,,,
,,,,,,,,,,,,,train23_audtrian1,2023-11-16_11h08.01.297,AudTraining1,2021.2.3,Win32,62.42197253,,,,,,,,,,,,,,RegPatterns/21d-ms_2_1_1_3_1_3_1_unit270.mp3,1,0,0,0,0,1,,,,,,,,,,,,,,,,,,
,,,,,,,,,,,,,train23_audtrian1,2023-11-16_11h08.01.297,AudTraining1,2021.2.3,Win32,62.42197253,,,,,,,,,,,,,,RegPatterns/21-ms_2_1_1_3_1_1_3_unit270.mp3,0,1,0,1,0,1,,,,,,,,,,,,,,,,,,
,,,,,,,,,,,,,train23_audtrian1,2023-11-16_11h08.01.297,AudTraining1,2021.2.3,Win32,62.42197253,,,,,,,,,,,,,,RegPatterns/21-ms_2_1_1_3_1_1_3_unit270.mp3,0,2,0,2,0,1,,,,,,,,,,,,,,,,,,
,,,,,,,,,,,,,train23_audtrian1,2023-11-16_11h08.01.297,AudTraining1,2021.2.3,Win32,62.42197253,,,,,,,,,,,,,,,,,,,,,1,0.4337,0,1,1,7,1,RegPatterns/21-ms_2_1_1_3_1_1_3_unit270.mp3,RegPatterns/21d-ms_2_1_1_3_1_3_1_unit270.mp3,,,,,,,,,
,,,,,,,,,,,,,train23_audtrian1,2023-11-16_11h08.01.297,AudTraining1,2021.2.3,Win32,62.42197253,,,,,,,,,,,,,,RegPatterns/24d-ms_4_2_1_1_2_1_1_unit230.mp3,1,0,0,0,0,1,,,,,,,,,,,,,,,,,,
,,,,,,,,,,,,,train23_audtrian1,2023-11-16_11h08.01.297,AudTraining1,2021.2.3,Win32,62.42197253,,,,,,,,,,,,,,RegPatterns/24-ms_4_2_2_1_1_1_1_unit230.mp3,0,1,0,1,0,1,,,,,,,,,,,,,,,,,,
,,,,,,,,,,,,,train23_audtrian1,2023-11-16_11h08.01.297,AudTraining1,2021.2.3,Win32,62.42197253,,,,,,,,,,,,,,RegPatterns/24-ms_4_2_2_1_1_1_1_unit230.mp3,0,2,0,2,0,1,,,,,,,,,,,,,,,,,,
,,,,,,,,,,,,,train23_audtrian1,2023-11-16_11h08.01.297,AudTraining1,2021.2.3,Win32,62.42197253,,,,,,,,,,,,,,,,,,,,,1,0.3855,0,2,2,9,1,RegPatterns/24-ms_4_2_2_1_1_1_1_unit230.mp3,RegPatterns/24d-ms_4_2_1_1_2_1_1_unit230.mp3,,,,,,,,,
,,,,,,,,,,,,,train23_audtrian1,2023-11-16_11h08.01.297,AudTraining1,2021.2.3,Win32,62.42197253,,,,,,,,,,,,,,RegPatterns/23-ms_4_1_1_1_1_3_1_unit250.mp3,0,0,0,0,0,1,,,,,,,,,,,,,,,,,,
,,,,,,,,,,,,,train23_audtrian1,2023-11-16_11h08.01.297,AudTraining1,2021.2.3,Win32,62.42197253,,,,,,,,,,,,,,RegPatterns/23d-ms_4_1_1_1_1_1_3_unit250.mp3,2,1,0,1,0,1,,,,,,,,,,,,,,,,,,
,,,,,,,,,,,,,train23_audtrian1,2023-11-16_11h08.01.297,AudTraining1,2021.2.3,Win32,62.42197253,,,,,,,,,,,,,,RegPatterns/23-ms_4_1_1_1_1_3_1_unit250.mp3,0,2,0,2,0,1,,,,,,,,,,,,,,,,,,
,,,,,,,,,,,,,train23_audtrian1,2023-11-16_11h08.01.297,AudTraining1,2021.2.3,Win32,62.42197253,,,,,,,,,,,,,,,,,,,,,3,0.3034,0,3,3,8,1,RegPatterns/23-ms_4_1_1_1_1_3_1_unit250.mp3,RegPatterns/23d-ms_4_1_1_1_1_1_3_unit250.mp3,,,,,,,,,
,,,,,,,,,,,,,train23_audtrian1,2023-11-16_11h08.01.297,AudTraining1,2021.2.3,Win32,62.42197253,,,,,,,,,,,,,,RegPatterns/13-ms_2_1_1_2_2_4_unit230.mp3,0,0,0,0,0,1,,,,,,,,,,,,,,,,,,
,,,,,,,,,,,,,train23_audtrian1,2023-11-16_11h08.01.297,AudTraining1,2021.2.3,Win32,62.42197253,,,,,,,,,,,,,,RegPatterns/13-ms_2_1_1_2_2_4_unit230.mp3,0,1,0,1,0,1,,,,,,,,,,,,,,,,,,
,,,,,,,,,,,,,train23_audtrian1,2023-11-16_11h08.01.297,AudTraining1,2021.2.3,Win32,62.42197253,,,,,,,,,,,,,,RegPatterns/13d-ms_1_1_2_2_2_4_unit230.mp3,3,2,0,2,0,1,,,,,,,,,,,,,,,,,,
,,,,,,,,,,,,,train23_audtrian1,2023-11-16_11h08.01.297,AudTraining1,2021.2.3,Win32,62.42197253,,,,,,,,,,,,,,,,,,,,,3,0.3715,0,4,4,4,1,RegPatterns/13-ms_2_1_1_2_2_4_unit230.mp3,RegPatterns/13d-ms_1_1_2_2_2_4_unit230.mp3,,,,,,,,,
,,,,,,,,,,,,,train23_audtrian1,2023-11-16_11h08.01.297,AudTraining1,2021.2.3,Win32,62.42197253,,,,,,,,,,,,,,RegPatterns/11-ms_2_2_3_1_1_3_unit250.mp3,0,0,0,0,0,1,,,,,,,,,,,,,,,,,,
,,,,,,,,,,,,,train23_audtrian1,2023-11-16_11h08.01.297,AudTraining1,2021.2.3,Win32,62.42197253,,,,,,,,,,,,,,RegPatterns/11-ms_2_2_3_1_1_3_unit250.mp3,0,1,0,1,0,1,,,,,,,,,,,,,,,,,,
,,,,,,,,,,,,,train23_audtrian1,2023-11-16_11h08.01.297,AudTraining1,2021.2.3,Win32,62.42197253,,,,,,,,,,,,,,RegPatterns/11d-ms_2_2_3_1_3_1_unit250.mp3,3,2,0,2,0,1,,,,,,,,,,,,,,,,,,
,,,,,,,,,,,,,train23_audtrian1,2023-11-16_11h08.01.297,AudTraining1,2021.2.3,Win32,62.42197253,,,,,,,,,,,,,,,,,,,,,3,0.2854,0,5,5,3,1,RegPatterns/11-ms_2_2_3_1_1_3_unit250.mp3,RegPatterns/11d-ms_2_2_3_1_3_1_unit250.mp3,,,,,,,,,
,,,,,,,,,,,,,train23_audtrian1,2023-11-16_11h08.01.297,AudTraining1,2021.2.3,Win32,62.42197253,,,,,,,,,,,,,,RegPatterns/15-ms_2_2_1_3_3_1_unit270.mp3,0,0,0,0,0,1,,,,,,,,,,,,,,,,,,
,,,,,,,,,,,,,train23_audtrian1,2023-11-16_11h08.01.297,AudTraining1,2021.2.3,Win32,62.42197253,,,,,,,,,,,,,,RegPatterns/15-ms_2_2_1_3_3_1_unit270.mp3,0,1,0,1,0,1,,,,,,,,,,,,,,,,,,
,,,,,,,,,,,,,train23_audtrian1,2023-11-16_11h08.01.297,AudTraining1,2021.2.3,Win32,62.42197253,,,,,,,,,,,,,,RegPatterns/15d-ms_2_2_1_3_1_3_unit270.mp3,3,2,0,2,0,1,,,,,,,,,,,,,,,,,,
,,,,,,,,,,,,,train23_audtrian1,2023-11-16_11h08.01.297,AudTraining1,2021.2.3,Win32,62.42197253,,,,,,,,,,,,,,,,,,,,,2,0.4392,0,6,6,5,1,RegPatterns/15-ms_2_2_1_3_3_1_unit270.mp3,RegPatterns/15d-ms_2_2_1_3_1_3_unit270.mp3,,,,,,,,,
,,,,,,,,,,,,,train23_audtrian1,2023-11-16_11h08.01.297,AudTraining1,2021.2.3,Win32,62.42197253,,,,,,,,,,,,,,RegPatterns/28d-ms_2_1_1_2_1_1_4_unit250.mp3,1,0,0,0,0,1,,,,,,,,,,,,,,,,,,
,,,,,,,,,,,,,train23_audtrian1,2023-11-16_11h08.01.297,AudTraining1,2021.2.3,Win32,62.42197253,,,,,,,,,,,,,,RegPatterns/28-ms_2_2_1_1_1_1_4_unit250.mp3,0,1,0,1,0,1,,,,,,,,,,,,,,,,,,
,,,,,,,,,,,,,train23_audtrian1,2023-11-16_11h08.01.297,AudTraining1,2021.2.3,Win32,62.42197253,,,,,,,,,,,,,,RegPatterns/28-ms_2_2_1_1_1_1_4_unit250.mp3,0,2,0,2,0,1,,,,,,,,,,,,,,,,,,
,,,,,,,,,,,,,train23_audtrian1,2023-11-16_11h08.01.297,AudTraining1,2021.2.3,Win32,62.42197253,,,,,,,,,,,,,,,,,,,,,1,0.2731,0,7,7,11,1,RegPatterns/28-ms_2_2_1_1_1_1_4_unit250.mp3,RegPatterns/28d-ms_2_1_1_2_1_1_4_unit250.mp3,,,,,,,,,
,,,,,,,,,,,,,train23_audtrian1,2023-11-16_11h08.01.297,AudTraining1,2021.2.3,Win32,62.42197253,,,,,,,,,,,,,,RegPatterns/17d-ms_4_1_1_2_1_3_unit250.mp3,1,0,0,0,0,1,,,,,,,,,,,,,,,,,,
,,,,,,,,,,,,,train23_audtrian1,2023-11-16_11h08.01.297,AudTraining1,2021.2.3,Win32,62.42197253,,,,,,,,,,,,,,RegPatterns/17-ms_4_1_1_2_3_1_unit250.mp3,0,1,0,1,0,1,,,,,,,,,,,,,,,,,,
,,,,,,,,,,,,,train23_audtrian1,2023-11-16_11h08.01.297,AudTraining1,2021.2.3,Win32,62.42197253,,,,,,,,,,,,,,RegPatterns/17-ms_4_1_1_2_3_1_unit250.mp3,0,2,0,2,0,1,,,,,,,,,,,,,,,,,,
,,,,,,,,,,,,,train23_audtrian1,2023-11-16_11h08.01.297,AudTraining1,2021.2.3,Win32,62.42197253,,,,,,,,,,,,,,,,,,,,,1,1.0033,0,8,8,6,1,RegPatterns/17-ms_4_1_1_2_3_1_unit250.mp3,RegPatterns/17d-ms_4_1_1_2_1_3_unit250.mp3,,,,,,,,,
,,,,,,,,,,,,,train23_audtrian1,2023-11-16_11h08.01.297,AudTraining1,2021.2.3,Win32,62.42197253,,,,,,,,,,,,,,RegPatterns/06-ms_4_3_1_2_2_unit270.mp3,0,0,0,0,0,1,,,,,,,,,,,,,,,,,,
,,,,,,,,,,,,,train23_audtrian1,2023-11-16_11h08.01.297,AudTraining1,2021.2.3,Win32,62.42197253,,,,,,,,,,,,,,RegPatterns/06-ms_4_3_1_2_2_unit270.mp3,0,1,0,1,0,1,,,,,,,,,,,,,,,,,,
,,,,,,,,,,,,,train23_audtrian1,2023-11-16_11h08.01.297,AudTraining1,2021.2.3,Win32,62.42197253,,,,,,,,,,,,,,RegPatterns/06d-ms_4_1_3_2_2_unit270.mp3,3,2,0,2,0,1,,,,,,,,,,,,,,,,,,
,,,,,,,,,,,,,train23_audtrian1,2023-11-16_11h08.01.297,AudTraining1,2021.2.3,Win32,62.42197253,,,,,,,,,,,,,,,,,,,,,3,0.2738,0,9,9,1,1,RegPatterns/06-ms_4_3_1_2_2_unit270.mp3,RegPatterns/06d-ms_4_1_3_2_2_unit270.mp3,,,,,,,,,
,,,,,,,,,,,,,train23_audtrian1,2023-11-16_11h08.01.297,AudTraining1,2021.2.3,Win32,62.42197253,,,,,,,,,,,,,,RegPatterns/04-ms_4_1_3_3_1_unit230.mp3,0,0,0,0,0,1,,,,,,,,,,,,,,,,,,
,,,,,,,,,,,,,train23_audtrian1,2023-11-16_11h08.01.297,AudTraining1,2021.2.3,Win32,62.42197253,,,,,,,,,,,,,,RegPatterns/04d-ms_4_3_1_3_1_unit230.mp3,2,1,0,1,0,1,,,,,,,,,,,,,,,,,,
,,,,,,,,,,,,,train23_audtrian1,2023-11-16_11h08.01.297,AudTraining1,2021.2.3,Win32,62.42197253,,,,,,,,,,,,,,RegPatterns/04-ms_4_1_3_3_1_unit230.mp3,0,2,0,2,0,1,,,,,,,,,,,,,,,,,,
,,,,,,,,,,,,,train23_audtrian1,2023-11-16_11h08.01.297,AudTraining1,2021.2.3,Win32,62.42197253,,,,,,,,,,RegPatterns/Noise.mp3,RegPatterns/Noise.mp3,,,,,,,,,,2,0.2684,,,,,,,,g,0.265,0,0,0,0,1,,
,,,,,,,,,,,,,train23_audtrian1,2023-11-16_11h08.01.297,AudTraining1,2021.2.3,Win32,62.42197253,,,,,,,,,,,,,,,,,,,,,,,0,10,10,0,1,RegPatterns/04-ms_4_1_3_3_1_unit230.mp3,RegPatterns/04d-ms_4_3_1_3_1_unit230.mp3,,,,,,,,,
,,,,,,,,,,,,,train23_audtrian1,2023-11-16_11h08.01.297,AudTraining1,2021.2.3,Win32,62.42197253,,,,,,,,,,,,,,RegPatterns/27-ms_1_1_2_3_1_1_3_unit270.mp3,0,0,0,0,0,1,,,,,,,,,,,,,,,,,,
,,,,,,,,,,,,,train23_audtrian1,2023-11-16_11h08.01.297,AudTraining1,2021.2.3,Win32,62.42197253,,,,,,,,,,,,,,RegPatterns/27-ms_1_1_2_3_1_1_3_unit270.mp3,0,1,0,1,0,1,,,,,,,,,,,,,,,,,,
,,,,,,,,,,,,,train23_audtrian1,2023-11-16_11h08.01.297,AudTraining1,2021.2.3,Win32,62.42197253,,,,,,,,,,,,,,RegPatterns/27d-ms_1_1_2_3_1_3_1_unit270.mp3,3,2,0,2,0,1,,,,,,,,,,,,,,,,,,
,,,,,,,,,,,,,train23_audtrian1,2023-11-16_11h08.01.297,AudTraining1,2021.2.3,Win32,62.42197253,,,,,,,,,,,,,,,,,,,,,3,0.3003,0,11,11,10,1,RegPatterns/27-ms_1_1_2_3_1_1_3_unit270.mp3,RegPatterns/27d-ms_1_1_2_3_1_3_1_unit270.mp3,,,,,,,,,
,,,,,,,,,,,,,train23_audtrian1,2023-11-16_11h08.01.297,AudTraining1,2021.2.3,Win32,62.42197253,,,,,,,,,,,,,,RegPatterns/04-ms_4_1_3_3_1_unit230.mp3,0,0,0,0,0,1,,,,,,,,,,,,,,,,,,
,,,,,,,,,,,,,train23_audtrian1,2023-11-16_11h08.01.297,AudTraining1,2021.2.3,Win32,62.42197253,,,,,,,,,,,,,,RegPatterns/04-ms_4_1_3_3_1_unit230.mp3,0,1,0,1,0,1,,,,,,,,,,,,,,,,,,
,,,,,,,,,,,,,train23_audtrian1,2023-11-16_11h08.01.297,AudTraining1,2021.2.3,Win32,62.42197253,,,,,,,,,,,,,,RegPatterns/04d-ms_4_3_1_3_1_unit230.mp3,3,2,0,2,0,1,,,,,,,,,,,,,,,,,,
,,,,,,,,,,,,,train23_audtrian1,2023-11-16_11h08.01.297,AudTraining1,2021.2.3,Win32,62.42197253,,,,,,,,,,,,,,,,,,,,,3,0.4756,1,0,12,0,1,RegPatterns/04-ms_4_1_3_3_1_unit230.mp3,RegPatterns/04d-ms_4_3_1_3_1_unit230.mp3,,,,,,,,,
,,,,,,,,,,,,,train23_audtrian1,2023-11-16_11h08.01.297,AudTraining1,2021.2.3,Win32,62.42197253,,,,,,,,,,,,,,RegPatterns/28-ms_2_2_1_1_1_1_4_unit250.mp3,0,0,0,0,0,1,,,,,,,,,,,,,,,,,,
,,,,,,,,,,,,,train23_audtrian1,2023-11-16_11h08.01.297,AudTraining1,2021.2.3,Win32,62.42197253,,,,,,,,,,,,,,RegPatterns/28-ms_2_2_1_1_1_1_4_unit250.mp3,0,1,0,1,0,1,,,,,,,,,,,,,,,,,,
,,,,,,,,,,,,,train23_audtrian1,2023-11-16_11h08.01.297,AudTraining1,2021.2.3,Win32,62.42197253,,,,,,,,,,,,,,RegPatterns/28d-ms_2_1_1_2_1_1_4_unit250.mp3,3,2,0,2,0,1,,,,,,,,,,,,,,,,,,
,,,,,,,,,,,,,train23_audtrian1,2023-11-16_11h08.01.297,AudTraining1,2021.2.3,Win32,62.42197253,,,,,,,,,,,,,,,,,,,,,3,0.3565,1,1,13,11,1,RegPatterns/28-ms_2_2_1_1_1_1_4_unit250.mp3,RegPatterns/28d-ms_2_1_1_2_1_1_4_unit250.mp3,,,,,,,,,
,,,,,,,,,,,,,train23_audtrian1,2023-11-16_11h08.01.297,AudTraining1,2021.2.3,Win32,62.42197253,,,,,,,,,,,,,,RegPatterns/13d-ms_1_1_2_2_2_4_unit230.mp3,1,0,0,0,0,1,,,,,,,,,,,,,,,,,,
,,,,,,,,,,,,,train23_audtrian1,2023-11-16_11h08.01.297,AudTraining1,2021.2.3,Win32,62.42197253,,,,,,,,,,,,,,RegPatterns/13-ms_2_1_1_2_2_4_unit230.mp3,0,1,0,1,0,1,,,,,,,,,,,,,,,,,,
,,,,,,,,,,,,,train23_audtrian1,2023-11-16_11h08.01.297,AudTraining1,2021.2.3,Win32,62.42197253,,,,,,,,,,,,,,RegPatterns/13-ms_2_1_1_2_2_4_unit230.mp3,0,2,0,2,0,1,,,,,,,,,,,,,,,,,,
,,,,,,,,,,,,,train23_audtrian1,2023-11-16_11h08.01.297,AudTraining1,2021.2.3,Win32,62.42197253,,,,,,,,,,,,,,,,,,,,,1,0.2503,1,2,14,4,1,RegPatterns/13-ms_2_1_1_2_2_4_unit230.mp3,RegPatterns/13d-ms_1_1_2_2_2_4_unit230.mp3,,,,,,,,,
,,,,,,,,,,,,,train23_audtrian1,2023-11-16_11h08.01.297,AudTraining1,2021.2.3,Win32,62.42197253,,,,,,,,,,,,,,RegPatterns/15d-ms_2_2_1_3_1_3_unit270.mp3,1,0,0,0,0,1,,,,,,,,,,,,,,,,,,
,,,,,,,,,,,,,train23_audtrian1,2023-11-16_11h08.01.297,AudTraining1,2021.2.3,Win32,62.42197253,,,,,,,,,,,,,,RegPatterns/15-ms_2_2_1_3_3_1_unit270.mp3,0,1,0,1,0,1,,,,,,,,,,,,,,,,,,
,,,,,,,,,,,,,train23_audtrian1,2023-11-16_11h08.01.297,AudTraining1,2021.2.3,Win32,62.42197253,,,,,,,,,,,,,,RegPatterns/15-ms_2_2_1_3_3_1_unit270.mp3,0,2,0,2,0,1,,,,,,,,,,,,,,,,,,
,,,,,,,,,,,,,train23_audtrian1,2023-11-16_11h08.01.297,AudTraining1,2021.2.3,Win32,62.42197253,,,,,,,,,,,,,,,,,,,,,1,0.2906,1,3,15,5,1,RegPatterns/15-ms_2_2_1_3_3_1_unit270.mp3,RegPatterns/15d-ms_2_2_1_3_1_3_unit270.mp3,,,,,,,,,
,,,,,,,,,,,,,train23_audtrian1,2023-11-16_11h08.01.297,AudTraining1,2021.2.3,Win32,62.42197253,,,,,,,,,,,,,,RegPatterns/06d-ms_4_1_3_2_2_unit270.mp3,1,0,0,0,0,1,,,,,,,,,,,,,,,,,,
,,,,,,,,,,,,,train23_audtrian1,2023-11-16_11h08.01.297,AudTraining1,2021.2.3,Win32,62.42197253,,,,,,,,,,,,,,RegPatterns/06-ms_4_3_1_2_2_unit270.mp3,0,1,0,1,0,1,,,,,,,,,,,,,,,,,,
,,,,,,,,,,,,,train23_audtrian1,2023-11-16_11h08.01.297,AudTraining1,2021.2.3,Win32,62.42197253,,,,,,,,,,,,,,RegPatterns/06-ms_4_3_1_2_2_unit270.mp3,0,2,0,2,0,1,,,,,,,,,,,,,,,,,,
,,,,,,,,,,,,,train23_audtrian1,2023-11-16_11h08.01.297,AudTraining1,2021.2.3,Win32,62.42197253,,,,,,,,,,,,,,,,,,,,,1,0.2677,1,4,16,1,1,RegPatterns/06-ms_4_3_1_2_2_unit270.mp3,RegPatterns/06d-ms_4_1_3_2_2_unit270.mp3,,,,,,,,,
,,,,,,,,,,,,,train23_audtrian1,2023-11-16_11h08.01.297,AudTraining1,2021.2.3,Win32,62.42197253,,,,,,,,,,,,,,RegPatterns/17-ms_4_1_1_2_3_1_unit250.mp3,0,0,0,0,0,1,,,,,,,,,,,,,,,,,,
,,,,,,,,,,,,,train23_audtrian1,2023-11-16_11h08.01.297,AudTraining1,2021.2.3,Win32,62.42197253,,,,,,,,,,,,,,RegPatterns/17-ms_4_1_1_2_3_1_unit250.mp3,0,1,0,1,0,1,,,,,,,,,,,,,,,,,,
,,,,,,,,,,,,,train23_audtrian1,2023-11-16_11h08.01.297,AudTraining1,2021.2.3,Win32,62.42197253,,,,,,,,,,,,,,RegPatterns/17d-ms_4_1_1_2_1_3_unit250.mp3,3,2,0,2,0,1,,,,,,,,,,,,,,,,,,
,,,,,,,,,,,,,train23_audtrian1,2023-11-16_11h08.01.297,AudTraining1,2021.2.3,Win32,62.42197253,,,,,,,,,,,,,,,,,,,,,3,0.334,1,5,17,6,1,RegPatterns/17-ms_4_1_1_2_3_1_unit250.mp3,RegPatterns/17d-ms_4_1_1_2_1_3_unit250.mp3,,,,,,,,,
,,,,,,,,,,,,,train23_audtrian1,2023-11-16_11h08.01.297,AudTraining1,2021.2.3,Win32,62.42197253,,,,,,,,,,,,,,RegPatterns/11d-ms_2_2_3_1_3_1_unit250.mp3,1,0,0,0,0,1,,,,,,,,,,,,,,,,,,
,,,,,,,,,,,,,train23_audtrian1,2023-11-16_11h08.01.297,AudTraining1,2021.2.3,Win32,62.42197253,,,,,,,,,,,,,,RegPatterns/11-ms_2_2_3_1_1_3_unit250.mp3,0,1,0,1,0,1,,,,,,,,,,,,,,,,,,
,,,,,,,,,,,,,train23_audtrian1,2023-11-16_11h08.01.297,AudTraining1,2021.2.3,Win32,62.42197253,,,,,,,,,,,,,,RegPatterns/11-ms_2_2_3_1_1_3_unit250.mp3,0,2,0,2,0,1,,,,,,,,,,,,,,,,,,
,,,,,,,,,,,,,train23_audtrian1,2023-11-16_11h08.01.297,AudTraining1,2021.2.3,Win32,62.42197253,,,,,,,,,,,,,,,,,,,,,1,0.326,1,6,18,3,1,RegPatterns/11-ms_2_2_3_1_1_3_unit250.mp3,RegPatterns/11d-ms_2_2_3_1_3_1_unit250.mp3,,,,,,,,,
,,,,,,,,,,,,,train23_audtrian1,2023-11-16_11h08.01.297,AudTraining1,2021.2.3,Win32,62.42197253,,,,,,,,,,,,,,RegPatterns/21-ms_2_1_1_3_1_1_3_unit270.mp3,0,0,0,0,0,1,,,,,,,,,,,,,,,,,,
,,,,,,,,,,,,,train23_audtrian1,2023-11-16_11h08.01.297,AudTraining1,2021.2.3,Win32,62.42197253,,,,,,,,,,,,,,RegPatterns/21-ms_2_1_1_3_1_1_3_unit270.mp3,0,1,0,1,0,1,,,,,,,,,,,,,,,,,,
,,,,,,,,,,,,,train23_audtrian1,2023-11-16_11h08.01.297,AudTraining1,2021.2.3,Win32,62.42197253,,,,,,,,,,,,,,RegPatterns/21d-ms_2_1_1_3_1_3_1_unit270.mp3,3,2,0,2,0,1,,,,,,,,,,,,,,,,,,
,,,,,,,,,,,,,train23_audtrian1,2023-11-16_11h08.01.297,AudTraining1,2021.2.3,Win32,62.42197253,,,,,,,,,,,,,,,,,,,,,3,0.4685,1,7,19,7,1,RegPatterns/21-ms_2_1_1_3_1_1_3_unit270.mp3,RegPatterns/21d-ms_2_1_1_3_1_3_1_unit270.mp3,,,,,,,,,
,,,,,,,,,,,,,train23_audtrian1,2023-11-16_11h08.01.297,AudTraining1,2021.2.3,Win32,62.42197253,,,,,,,,,,,,,,RegPatterns/24-ms_4_2_2_1_1_1_1_unit230.mp3,0,0,0,0,0,1,,,,,,,,,,,,,,,,,,
,,,,,,,,,,,,,train23_audtrian1,2023-11-16_11h08.01.297,AudTraining1,2021.2.3,Win32,62.42197253,,,,,,,,,,,,,,RegPatterns/24-ms_4_2_2_1_1_1_1_unit230.mp3,0,1,0,1,0,1,,,,,,,,,,,,,,,,,,
,,,,,,,,,,,,,train23_audtrian1,2023-11-16_11h08.01.297,AudTraining1,2021.2.3,Win32,62.42197253,,,,,,,,,,,,,,RegPatterns/24d-ms_4_2_1_1_2_1_1_unit230.mp3,3,2,0,2,0,1,,,,,,,,,,,,,,,,,,
,,,,,,,,,,,,,train23_audtrian1,2023-11-16_11h08.01.297,AudTraining1,2021.2.3,Win32,62.42197253,,,,,,,,,,,,,,,,,,,,,3,0.3009,1,8,20,9,1,RegPatterns/24-ms_4_2_2_1_1_1_1_unit230.mp3,RegPatterns/24d-ms_4_2_1_1_2_1_1_unit230.mp3,,,,,,,,,
,,,,,,,,,,,,,train23_audtrian1,2023-11-16_11h08.01.297,AudTraining1,2021.2.3,Win32,62.42197253,,,,,,,,,,,,,,RegPatterns/07-ms_1_1_2_3_1_4_unit230.mp3,0,0,0,0,0,1,,,,,,,,,,,,,,,,,,
,,,,,,,,,,,,,train23_audtrian1,2023-11-16_11h08.01.297,AudTraining1,2021.2.3,Win32,62.42197253,,,,,,,,,,,,,,RegPatterns/07-ms_1_1_2_3_1_4_unit230.mp3,0,1,0,1,0,1,,,,,,,,,,,,,,,,,,
,,,,,,,,,,,,,train23_audtrian1,2023-11-16_11h08.01.297,AudTraining1,2021.2.3,Win32,62.42197253,,,,,,,,,,,,,,RegPatterns/07d-ms_1_1_2_1_3_4_unit230.mp3,3,2,0,2,0,1,,,,,,,,,,,,,,,,,,
,,,,,,,,,,,,,train23_audtrian1,2023-11-16_11h08.01.297,AudTraining1,2021.2.3,Win32,62.42197253,,,,,,,,,,,,,,,,,,,,,3,1.0752,1,9,21,2,1,RegPatterns/07-ms_1_1_2_3_1_4_unit230.mp3,RegPatterns/07d-ms_1_1_2_1_3_4_unit230.mp3,,,,,,,,,
,,,,,,,,,,,,,train23_audtrian1,2023-11-16_11h08.01.297,AudTraining1,2021.2.3,Win32,62.42197253,,,,,,,,,,,,,,RegPatterns/23d-ms_4_1_1_1_1_1_3_unit250.mp3,1,0,0,0,0,1,,,,,,,,,,,,,,,,,,
,,,,,,,,,,,,,train23_audtrian1,2023-11-16_11h08.01.297,AudTraining1,2021.2.3,Win32,62.42197253,,,,,,,,,,,,,,RegPatterns/23-ms_4_1_1_1_1_3_1_unit250.mp3,0,1,0,1,0,1,,,,,,,,,,,,,,,,,,
,,,,,,,,,,,,,train23_audtrian1,2023-11-16_11h08.01.297,AudTraining1,2021.2.3,Win32,62.42197253,,,,,,,,,,,,,,RegPatterns/23-ms_4_1_1_1_1_3_1_unit250.mp3,0,2,0,2,0,1,,,,,,,,,,,,,,,,,,
,,,,,,,,,,,,,train23_audtrian1,2023-11-16_11h08.01.297,AudTraining1,2021.2.3,Win32,62.42197253,,,,,,,,,,RegPatterns/Noise.mp3,RegPatterns/Noise.mp3,,,,,,,,,,1,0.3173,,,,,,,,g,0.5572,0,0,0,0,1,,
,,,,,,,,,,,,,train23_audtrian1,2023-11-16_11h08.01.297,AudTraining1,2021.2.3,Win32,62.42197253,,,,,,,,,,,,,,,,,,,,,,,1,10,22,8,1,RegPatterns/23-ms_4_1_1_1_1_3_1_unit250.mp3,RegPatterns/23d-ms_4_1_1_1_1_1_3_unit250.mp3,,,,,,,,,
,,,,,,,,,,,,,train23_audtrian1,2023-11-16_11h08.01.297,AudTraining1,2021.2.3,Win32,62.42197253,,,,,,,,,,,,,,RegPatterns/27-ms_1_1_2_3_1_1_3_unit270.mp3,0,0,0,0,0,1,,,,,,,,,,,,,,,,,,
,,,,,,,,,,,,,train23_audtrian1,2023-11-16_11h08.01.297,AudTraining1,2021.2.3,Win32,62.42197253,,,,,,,,,,,,,,RegPatterns/27d-ms_1_1_2_3_1_3_1_unit270.mp3,2,1,0,1,0,1,,,,,,,,,,,,,,,,,,
,,,,,,,,,,,,,train23_audtrian1,2023-11-16_11h08.01.297,AudTraining1,2021.2.3,Win32,62.42197253,,,,,,,,,,,,,,RegPatterns/27-ms_1_1_2_3_1_1_3_unit270.mp3,0,2,0,2,0,1,,,,,,,,,,,,,,,,,,
,,,,,,,,,,,,,train23_audtrian1,2023-11-16_11h08.01.297,AudTraining1,2021.2.3,Win32,62.42197253,,,,,,,,,,,,,,,,,,,,,2,0.4019,1,11,23,10,1,RegPatterns/27-ms_1_1_2_3_1_1_3_unit270.mp3,RegPatterns/27d-ms_1_1_2_3_1_3_1_unit270.mp3,,,,,,,,,
,,,,,,,,,,,,,train23_audtrian1,2023-11-16_11h08.01.297,AudTraining1,2021.2.3,Win32,62.42197253,,,,,,,,,,,,,,RegPatterns/24-ms_4_2_2_1_1_1_1_unit230.mp3,0,0,0,0,0,1,,,,,,,,,,,,,,,,,,
,,,,,,,,,,,,,train23_audtrian1,2023-11-16_11h08.01.297,AudTraining1,2021.2.3,Win32,62.42197253,,,,,,,,,,,,,,RegPatterns/24d-ms_4_2_1_1_2_1_1_unit230.mp3,2,1,0,1,0,1,,,,,,,,,,,,,,,,,,
,,,,,,,,,,,,,train23_audtrian1,2023-11-16_11h08.01.297,AudTraining1,2021.2.3,Win32,62.42197253,,,,,,,,,,,,,,RegPatterns/24-ms_4_2_2_1_1_1_1_unit230.mp3,0,2,0,2,0,1,,,,,,,,,,,,,,,,,,
,,,,,,,,,,,,,train23_audtrian1,2023-11-16_11h08.01.297,AudTraining1,2021.2.3,Win32,62.42197253,,,,,,,,,,,,,,,,,,,,,2,0.3349,2,0,24,9,1,RegPatterns/24-ms_4_2_2_1_1_1_1_unit230.mp3,RegPatterns/24d-ms_4_2_1_1_2_1_1_unit230.mp3,,,,,,,,,
,,,,,,,,,,,,,train23_audtrian1,2023-11-16_11h08.01.297,AudTraining1,2021.2.3,Win32,62.42197253,,,,,,,,,,,,,,RegPatterns/21-ms_2_1_1_3_1_1_3_unit270.mp3,0,0,0,0,0,1,,,,,,,,,,,,,,,,,,
,,,,,,,,,,,,,train23_audtrian1,2023-11-16_11h08.01.297,AudTraining1,2021.2.3,Win32,62.42197253,,,,,,,,,,,,,,RegPatterns/21d-ms_2_1_1_3_1_3_1_unit270.mp3,2,1,0,1,0,1,,,,,,,,,,,,,,,,,,
,,,,,,,,,,,,,train23_audtrian1,2023-11-16_11h08.01.297,AudTraining1,2021.2.3,Win32,62.42197253,,,,,,,,,,,,,,RegPatterns/21-ms_2_1_1_3_1_1_3_unit270.mp3,0,2,0,2,0,1,,,,,,,,,,,,,,,,,,
,,,,,,,,,,,,,train23_audtrian1,2023-11-16_11h08.01.297,AudTraining1,2021.2.3,Win32,62.42197253,,,,,,,,,,,,,,,,,,,,,1,3.5204,2,1,25,7,1,RegPatterns/21-ms_2_1_1_3_1_1_3_unit270.mp3,RegPatterns/21d-ms_2_1_1_3_1_3_1_unit270.mp3,,,,,,,,,
,,,,,,,,,,,,,train23_audtrian1,2023-11-16_11h08.01.297,AudTraining1,2021.2.3,Win32,62.42197253,,,,,,,,,,,,,,RegPatterns/17-ms_4_1_1_2_3_1_unit250.mp3,0,0,0,0,0,1,,,,,,,,,,,,,,,,,,
,,,,,,,,,,,,,train23_audtrian1,2023-11-16_11h08.01.297,AudTraining1,2021.2.3,Win32,62.42197253,,,,,,,,,,,,,,RegPatterns/17d-ms_4_1_1_2_1_3_unit250.mp3,2,1,0,1,0,1,,,,,,,,,,,,,,,,,,
,,,,,,,,,,,,,train23_audtrian1,2023-11-16_11h08.01.297,AudTraining1,2021.2.3,Win32,62.42197253,,,,,,,,,,,,,,RegPatterns/17-ms_4_1_1_2_3_1_unit250.mp3,0,2,0,2,0,1,,,,,,,,,,,,,,,,,,
,,,,,,,,,,,,,train23_audtrian1,2023-11-16_11h08.01.297,AudTraining1,2021.2.3,Win32,62.42197253,,,,,,,,,,,,,,,,,,,,,2,0.7,2,2,26,6,1,RegPatterns/17-ms_4_1_1_2_3_1_unit250.mp3,RegPatterns/17d-ms_4_1_1_2_1_3_unit250.mp3,,,,,,,,,
,,,,,,,,,,,,,train23_audtrian1,2023-11-16_11h08.01.297,AudTraining1,2021.2.3,Win32,62.42197253,,,,,,,,,,,,,,RegPatterns/13-ms_2_1_1_2_2_4_unit230.mp3,0,0,0,0,0,1,,,,,,,,,,,,,,,,,,
,,,,,,,,,,,,,train23_audtrian1,2023-11-16_11h08.01.297,AudTraining1,2021.2.3,Win32,62.42197253,,,,,,,,,,,,,,RegPatterns/13d-ms_1_1_2_2_2_4_unit230.mp3,2,1,0,1,0,1,,,,,,,,,,,,,,,,,,
,,,,,,,,,,,,,train23_audtrian1,2023-11-16_11h08.01.297,AudTraining1,2021.2.3,Win32,62.42197253,,,,,,,,,,,,,,RegPatterns/13-ms_2_1_1_2_2_4_unit230.mp3,0,2,0,2,0,1,,,,,,,,,,,,,,,,,,
,,,,,,,,,,,,,train23_audtrian1,2023-11-16_11h08.01.297,AudTraining1,2021.2.3,Win32,62.42197253,,,,,,,,,,,,,,,,,,,,,2,0.6684,2,3,27,4,1,RegPatterns/13-ms_2_1_1_2_2_4_unit230.mp3,RegPatterns/13d-ms_1_1_2_2_2_4_unit230.mp3,,,,,,,,,
,,,,,,,,,,,,,train23_audtrian1,2023-11-16_11h08.01.297,AudTraining1,2021.2.3,Win32,62.42197253,,,,,,,,,,,,,,RegPatterns/23-ms_4_1_1_1_1_3_1_unit250.mp3,0,0,0,0,0,1,,,,,,,,,,,,,,,,,,
,,,,,,,,,,,,,train23_audtrian1,2023-11-16_11h08.01.297,AudTraining1,2021.2.3,Win32,62.42197253,,,,,,,,,,,,,,RegPatterns/23-ms_4_1_1_1_1_3_1_unit250.mp3,0,1,0,1,0,1,,,,,,,,,,,,,,,,,,
,,,,,,,,,,,,,train23_audtrian1,2023-11-16_11h08.01.297,AudTraining1,2021.2.3,Win32,62.42197253,,,,,,,,,,,,,,RegPatterns/23d-ms_4_1_1_1_1_1_3_unit250.mp3,3,2,0,2,0,1,,,,,,,,,,,,,,,,,,
,,,,,,,,,,,,,train23_audtrian1,2023-11-16_11h08.01.297,AudTraining1,2021.2.3,Win32,62.42197253,,,,,,,,,,,,,,,,,,,,,2,1.7018,2,4,28,8,1,RegPatterns/23-ms_4_1_1_1_1_3_1_unit250.mp3,RegPatterns/23d-ms_4_1_1_1_1_1_3_unit250.mp3,,,,,,,,,
,,,,,,,,,,,,,train23_audtrian1,2023-11-16_11h08.01.297,AudTraining1,2021.2.3,Win32,62.42197253,,,,,,,,,,,,,,RegPatterns/07-ms_1_1_2_3_1_4_unit230.mp3,0,0,0,0,0,1,,,,,,,,,,,,,,,,,,
,,,,,,,,,,,,,train23_audtrian1,2023-11-16_11h08.01.297,AudTraining1,2021.2.3,Win32,62.42197253,,,,,,,,,,,,,,RegPatterns/07d-ms_1_1_2_1_3_4_unit230.mp3,2,1,0,1,0,1,,,,,,,,,,,,,,,,,,
,,,,,,,,,,,,,train23_audtrian1,2023-11-16_11h08.01.297,AudTraining1,2021.2.3,Win32,62.42197253,,,,,,,,,,,,,,RegPatterns/07-ms_1_1_2_3_1_4_unit230.mp3,0,2,0,2,0,1,,,,,,,,,,,,,,,,,,
,,,,,,,,,,,,,train23_audtrian1,2023-11-16_11h08.01.297,AudTraining1,2021.2.3,Win32,62.42197253,,,,,,,,,,,,,,,,,,,,,2,2.252,2,5,29,2,1,RegPatterns/07-ms_1_1_2_3_1_4_unit230.mp3,RegPatterns/07d-ms_1_1_2_1_3_4_unit230.mp3,,,,,,,,,
,,,,,,,,,,,,,train23_audtrian1,2023-11-16_11h08.01.297,AudTraining1,2021.2.3,Win32,62.42197253,,,,,,,,,,,,,,RegPatterns/11-ms_2_2_3_1_1_3_unit250.mp3,0,0,0,0,0,1,,,,,,,,,,,,,,,,,,
,,,,,,,,,,,,,train23_audtrian1,2023-11-16_11h08.01.297,AudTraining1,2021.2.3,Win32,62.42197253,,,,,,,,,,,,,,RegPatterns/11d-ms_2_2_3_1_3_1_unit250.mp3,2,1,0,1,0,1,,,,,,,,,,,,,,,,,,
,,,,,,,,,,,,,train23_audtrian1,2023-11-16_11h08.01.297,AudTraining1,2021.2.3,Win32,62.42197253,,,,,,,,,,,,,,RegPatterns/11-ms_2_2_3_1_1_3_unit250.mp3,0,2,0,2,0,1,,,,,,,,,,,,,,,,,,
,,,,,,,,,,,,,train23_audtrian1,2023-11-16_11h08.01.297,AudTraining1,2021.2.3,Win32,62.42197253,,,,,,,,,,,,,,,,,,,,,2,0.8335,2,6,30,3,1,RegPatterns/11-ms_2_2_3_1_1_3_unit250.mp3,RegPatterns/11d-ms_2_2_3_1_3_1_unit250.mp3,,,,,,,,,
,,,,,,,,,,,,,train23_audtrian1,2023-11-16_11h08.01.297,AudTraining1,2021.2.3,Win32,62.42197253,,,,,,,,,,,,,,RegPatterns/15-ms_2_2_1_3_3_1_unit270.mp3,0,0,0,0,0,1,,,,,,,,,,,,,,,,,,
,,,,,,,,,,,,,train23_audtrian1,2023-11-16_11h08.01.297,AudTraining1,2021.2.3,Win32,62.42197253,,,,,,,,,,,,,,RegPatterns/15d-ms_2_2_1_3_1_3_unit270.mp3,2,1,0,1,0,1,,,,,,,,,,,,,,,,,,
,,,,,,,,,,,,,train23_audtrian1,2023-11-16_11h08.01.297,AudTraining1,2021.2.3,Win32,62.42197253,,,,,,,,,,,,,,RegPatterns/15-ms_2_2_1_3_3_1_unit270.mp3,0,2,0,2,0,1,,,,,,,,,,,,,,,,,,
,,,,,,,,,,,,,train23_audtrian1,2023-11-16_11h08.01.297,AudTraining1,2021.2.3,Win32,62.42197253,,,,,,,,,,,,,,,,,,,,,2,0.4848,2,7,31,5,1,RegPatterns/15-ms_2_2_1_3_3_1_unit270.mp3,RegPatterns/15d-ms_2_2_1_3_1_3_unit270.mp3,,,,,,,,,
,,,,,,,,,,,,,train23_audtrian1,2023-11-16_11h08.01.297,AudTraining1,2021.2.3,Win32,62.42197253,,,,,,,,,,,,,,RegPatterns/06-ms_4_3_1_2_2_unit270.mp3,0,0,0,0,0,1,,,,,,,,,,,,,,,,,,
,,,,,,,,,,,,,train23_audtrian1,2023-11-16_11h08.01.297,AudTraining1,2021.2.3,Win32,62.42197253,,,,,,,,,,,,,,RegPatterns/06d-ms_4_1_3_2_2_unit270.mp3,2,1,0,1,0,1,,,,,,,,,,,,,,,,,,
,,,,,,,,,,,,,train23_audtrian1,2023-11-16_11h08.01.297,AudTraining1,2021.2.3,Win32,62.42197253,,,,,,,,,,,,,,RegPatterns/06-ms_4_3_1_2_2_unit270.mp3,0,2,0,2,0,1,,,,,,,,,,,,,,,,,,
,,,,,,,,,,,,,train23_audtrian1,2023-11-16_11h08.01.297,AudTraining1,2021.2.3,Win32,62.42197253,,,,,,,,,,,,,,,,,,,,,2,0.6844,2,8,32,1,1,RegPatterns/06-ms_4_3_1_2_2_unit270.mp3,RegPatterns/06d-ms_4_1_3_2_2_unit270.mp3,,,,,,,,,
,,,,,,,,,,,,,train23_audtrian1,2023-11-16_11h08.01.297,AudTraining1,2021.2.3,Win32,62.42197253,,,,,,,,,,,,,,RegPatterns/28-ms_2_2_1_1_1_1_4_unit250.mp3,0,0,0,0,0,1,,,,,,,,,,,,,,,,,,
,,,,,,,,,,,,,train23_audtrian1,2023-11-16_11h08.01.297,AudTraining1,2021.2.3,Win32,62.42197253,,,,,,,,,,,,,,RegPatterns/28d-ms_2_1_1_2_1_1_4_unit250.mp3,2,1,0,1,0,1,,,,,,,,,,,,,,,,,,
,,,,,,,,,,,,,train23_audtrian1,2023-11-16_11h08.01.297,AudTraining1,2021.2.3,Win32,62.42197253,,,,,,,,,,,,,,RegPatterns/28-ms_2_2_1_1_1_1_4_unit250.mp3,0,2,0,2,0,1,,,,,,,,,,,,,,,,,,
,,,,,,,,,,,,,train23_audtrian1,2023-11-16_11h08.01.297,AudTraining1,2021.2.3,Win32,62.42197253,,,,,,,,,,,,,,,,,,,,,2,0.7224,2,9,33,11,1,RegPatterns/28-ms_2_2_1_1_1_1_4_unit250.mp3,RegPatterns/28d-ms_2_1_1_2_1_1_4_unit250.mp3,,,,,,,,,
,,,,,,,,,,,,,train23_audtrian1,2023-11-16_11h08.01.297,AudTraining1,2021.2.3,Win32,62.42197253,,,,,,,,,,,,,,RegPatterns/27d-ms_1_1_2_3_1_3_1_unit270.mp3,1,0,0,0,0,1,,,,,,,,,,,,,,,,,,
,,,,,,,,,,,,,train23_audtrian1,2023-11-16_11h08.01.297,AudTraining1,2021.2.3,Win32,62.42197253,,,,,,,,,,,,,,RegPatterns/27-ms_1_1_2_3_1_1_3_unit270.mp3,0,1,0,1,0,1,,,,,,,,,,,,,,,,,,
,,,,,,,,,,,,,train23_audtrian1,2023-11-16_11h08.01.297,AudTraining1,2021.2.3,Win32,62.42197253,,,,,,,,,,,,,,RegPatterns/27-ms_1_1_2_3_1_1_3_unit270.mp3,0,2,0,2,0,1,,,,,,,,,,,,,,,,,,
,,,,,,,,,,,,,train23_audtrian1,2023-11-16_11h08.01.297,AudTraining1,2021.2.3,Win32,62.42197253,,,,,,,,,,,,,,,,,,,,,1,3.7027,2,10,34,10,1,RegPatterns/27-ms_1_1_2_3_1_1_3_unit270.mp3,RegPatterns/27d-ms_1_1_2_3_1_3_1_unit270.mp3,,,,,,,,,
,,,,,,,,,,,,,train23_audtrian1,2023-11-16_11h08.01.297,AudTraining1,2021.2.3,Win32,62.42197253,,,,,,,,,,,,,,RegPatterns/04d-ms_4_3_1_3_1_unit230.mp3,1,0,0,0,0,1,,,,,,,,,,,,,,,,,,
,,,,,,,,,,,,,train23_audtrian1,2023-11-16_11h08.01.297,AudTraining1,2021.2.3,Win32,62.42197253,,,,,,,,,,,,,,RegPatterns/04-ms_4_1_3_3_1_unit230.mp3,0,1,0,1,0,1,,,,,,,,,,,,,,,,,,
,,,,,,,,,,,,,train23_audtrian1,2023-11-16_11h08.01.297,AudTraining1,2021.2.3,Win32,62.42197253,,,,,,,,,,,,,,RegPatterns/04-ms_4_1_3_3_1_unit230.mp3,0,2,0,2,0,1,,,,,,,,,,,,,,,,,,
,,,,,,,,,,,,,train23_audtrian1,2023-11-16_11h08.01.297,AudTraining1,2021.2.3,Win32,62.42197253,,,,,,,,,,,,,,,,,,,,,1,0.6017,2,11,35,0,1,RegPatterns/04-ms_4_1_3_3_1_unit230.mp3,RegPatterns/04d-ms_4_3_1_3_1_unit230.mp3,,,,,,,,,
,,,,,,,,,,,,,train23_audtrian1,2023-11-16_11h08.01.297,AudTraining1,2021.2.3,Win32,62.42197253,,,,,,,,,,,,,,,,,,,,,,,,,,,,,,,,,,,,,space,2.6171
