key_resp.keys,key_resp.rt,key_resp_8.keys,key_resp_8.rt,key_resp_9.keys,key_resp_9.rt,trials.thisRepN,trials.thisTrialN,trials.thisN,trials.thisIndex,trials.ran,volstandard,voldeviant,participant,date,expName,psychopyVersion,OS,frameRate,key_resp_2.keys,key_resp_2.rt,key_resp_4.keys,key_resp_4.rt,trials_5.thisRepN,trials_5.thisTrialN,trials_5.thisN,trials_5.thisIndex,trials_5.ran,RegStandardPitch,RegDeviantPitch,key_resp_5.keys,key_resp_5.rt,RegAudSequence,diff-reg,trials_2.thisRepN,trials_2.thisTrialN,trials_2.thisN,trials_2.thisIndex,trials_2.ran,key_resp_7.keys,key_resp_7.rt,trials_3.thisRepN,trials_3.thisTrialN,trials_3.thisN,trials_3.thisIndex,trials_3.ran,standard,devient,key_resp_6.keys,key_resp_6.rt,trials_4.thisRepN,trials_4.thisTrialN,trials_4.thisN,trials_4.thisIndex,trials_4.ran,key_resp_10.keys,key_resp_10.rt
space,30.7574,space,67.9027,space,1.2238,0,0,0,0,1,RegPatterns/01-ms_2_2_4_1_3_unit230.mp3,RegPatterns/01d-ms_2_2_4_3_1_unit230.mp3,train53_audtrain1,2024-01-20_10h37.03.661,AudTraining1,2021.2.3,MacIntel,120.4819277,,,,,,,,,,,,,,,,,,,,,,,,,,,,,,,,,,,,,,
,,,,,,,,,,,,,train53_audtrain1,2024-01-20_10h37.03.661,AudTraining1,2021.2.3,MacIntel,120.4819277,space,1.785,g,1.7382,0,0,0,0,1,RegPatterns/Noise.mp3,RegPatterns/Noise.mp3,,,,,,,,,,,,,,,,,,,,,,,,,,,
,,,,,,,,,,,,,train53_audtrain1,2024-01-20_10h37.03.661,AudTraining1,2021.2.3,MacIntel,120.4819277,,,,,,,,,,,,space,2.5268,RegPatterns/06-ms_4_3_1_2_2_unit270.mp3,0,0,0,0,0,1,,,,,,,,,,,,,,,,,,
,,,,,,,,,,,,,train53_audtrain1,2024-01-20_10h37.03.661,AudTraining1,2021.2.3,MacIntel,120.4819277,,,,,,,,,,,,,,RegPatterns/06-ms_4_3_1_2_2_unit270.mp3,0,1,0,1,0,1,,,,,,,,,,,,,,,,,,
,,,,,,,,,,,,,train53_audtrain1,2024-01-20_10h37.03.661,AudTraining1,2021.2.3,MacIntel,120.4819277,,,,,,,,,,,,,,RegPatterns/06d-ms_4_1_3_2_2_unit270.mp3,3,2,0,2,0,1,,,,,,,,,,,,,,,,,,
,,,,,,,,,,,,,train53_audtrain1,2024-01-20_10h37.03.661,AudTraining1,2021.2.3,MacIntel,120.4819277,,,,,,,,,,,,,,,,,,,,,1,0.4373,0,0,0,1,1,RegPatterns/06-ms_4_3_1_2_2_unit270.mp3,RegPatterns/06d-ms_4_1_3_2_2_unit270.mp3,,,,,,,,,
,,,,,,,,,,,,,train53_audtrain1,2024-01-20_10h37.03.661,AudTraining1,2021.2.3,MacIntel,120.4819277,,,,,,,,,,,,,,RegPatterns/17-ms_4_1_1_2_3_1_unit250.mp3,0,0,0,0,0,1,,,,,,,,,,,,,,,,,,
,,,,,,,,,,,,,train53_audtrain1,2024-01-20_10h37.03.661,AudTraining1,2021.2.3,MacIntel,120.4819277,,,,,,,,,,,,,,RegPatterns/17-ms_4_1_1_2_3_1_unit250.mp3,0,1,0,1,0,1,,,,,,,,,,,,,,,,,,
,,,,,,,,,,,,,train53_audtrain1,2024-01-20_10h37.03.661,AudTraining1,2021.2.3,MacIntel,120.4819277,,,,,,,,,,,,,,RegPatterns/17d-ms_4_1_1_2_1_3_unit250.mp3,3,2,0,2,0,1,,,,,,,,,,,,,,,,,,
,,,,,,,,,,,,,train53_audtrain1,2024-01-20_10h37.03.661,AudTraining1,2021.2.3,MacIntel,120.4819277,,,,,,,,,,,,,,,,,,,,,2,0.5283,0,1,1,6,1,RegPatterns/17-ms_4_1_1_2_3_1_unit250.mp3,RegPatterns/17d-ms_4_1_1_2_1_3_unit250.mp3,,,,,,,,,
,,,,,,,,,,,,,train53_audtrain1,2024-01-20_10h37.03.661,AudTraining1,2021.2.3,MacIntel,120.4819277,,,,,,,,,,,,,,RegPatterns/21d-ms_2_1_1_3_1_3_1_unit270.mp3,1,0,0,0,0,1,,,,,,,,,,,,,,,,,,
,,,,,,,,,,,,,train53_audtrain1,2024-01-20_10h37.03.661,AudTraining1,2021.2.3,MacIntel,120.4819277,,,,,,,,,,,,,,RegPatterns/21-ms_2_1_1_3_1_1_3_unit270.mp3,0,1,0,1,0,1,,,,,,,,,,,,,,,,,,
,,,,,,,,,,,,,train53_audtrain1,2024-01-20_10h37.03.661,AudTraining1,2021.2.3,MacIntel,120.4819277,,,,,,,,,,,,,,RegPatterns/21-ms_2_1_1_3_1_1_3_unit270.mp3,0,2,0,2,0,1,,,,,,,,,,,,,,,,,,
,,,,,,,,,,,,,train53_audtrain1,2024-01-20_10h37.03.661,AudTraining1,2021.2.3,MacIntel,120.4819277,,,,,,,,,,,,,,,,,,,,,2,0.5254,0,2,2,7,1,RegPatterns/21-ms_2_1_1_3_1_1_3_unit270.mp3,RegPatterns/21d-ms_2_1_1_3_1_3_1_unit270.mp3,,,,,,,,,
,,,,,,,,,,,,,train53_audtrain1,2024-01-20_10h37.03.661,AudTraining1,2021.2.3,MacIntel,120.4819277,,,,,,,,,,,,,,RegPatterns/04-ms_4_1_3_3_1_unit230.mp3,0,0,0,0,0,1,,,,,,,,,,,,,,,,,,
,,,,,,,,,,,,,train53_audtrain1,2024-01-20_10h37.03.661,AudTraining1,2021.2.3,MacIntel,120.4819277,,,,,,,,,,,,,,RegPatterns/04d-ms_4_3_1_3_1_unit230.mp3,2,1,0,1,0,1,,,,,,,,,,,,,,,,,,
,,,,,,,,,,,,,train53_audtrain1,2024-01-20_10h37.03.661,AudTraining1,2021.2.3,MacIntel,120.4819277,,,,,,,,,,,,,,RegPatterns/04-ms_4_1_3_3_1_unit230.mp3,0,2,0,2,0,1,,,,,,,,,,,,,,,,,,
,,,,,,,,,,,,,train53_audtrain1,2024-01-20_10h37.03.661,AudTraining1,2021.2.3,MacIntel,120.4819277,,,,,,,,,,,,,,,,,,,,,2,1.1999,0,3,3,0,1,RegPatterns/04-ms_4_1_3_3_1_unit230.mp3,RegPatterns/04d-ms_4_3_1_3_1_unit230.mp3,,,,,,,,,
,,,,,,,,,,,,,train53_audtrain1,2024-01-20_10h37.03.661,AudTraining1,2021.2.3,MacIntel,120.4819277,,,,,,,,,,,,,,RegPatterns/23-ms_4_1_1_1_1_3_1_unit250.mp3,0,0,0,0,0,1,,,,,,,,,,,,,,,,,,
,,,,,,,,,,,,,train53_audtrain1,2024-01-20_10h37.03.661,AudTraining1,2021.2.3,MacIntel,120.4819277,,,,,,,,,,,,,,RegPatterns/23d-ms_4_1_1_1_1_1_3_unit250.mp3,2,1,0,1,0,1,,,,,,,,,,,,,,,,,,
,,,,,,,,,,,,,train53_audtrain1,2024-01-20_10h37.03.661,AudTraining1,2021.2.3,MacIntel,120.4819277,,,,,,,,,,,,,,RegPatterns/23-ms_4_1_1_1_1_3_1_unit250.mp3,0,2,0,2,0,1,,,,,,,,,,,,,,,,,,
,,,,,,,,,,,,,train53_audtrain1,2024-01-20_10h37.03.661,AudTraining1,2021.2.3,MacIntel,120.4819277,,,,,,,,,,,,,,,,,,,,,3,1.3675,0,4,4,8,1,RegPatterns/23-ms_4_1_1_1_1_3_1_unit250.mp3,RegPatterns/23d-ms_4_1_1_1_1_1_3_unit250.mp3,,,,,,,,,
,,,,,,,,,,,,,train53_audtrain1,2024-01-20_10h37.03.661,AudTraining1,2021.2.3,MacIntel,120.4819277,,,,,,,,,,,,,,RegPatterns/27-ms_1_1_2_3_1_1_3_unit270.mp3,0,0,0,0,0,1,,,,,,,,,,,,,,,,,,
,,,,,,,,,,,,,train53_audtrain1,2024-01-20_10h37.03.661,AudTraining1,2021.2.3,MacIntel,120.4819277,,,,,,,,,,,,,,RegPatterns/27-ms_1_1_2_3_1_1_3_unit270.mp3,0,1,0,1,0,1,,,,,,,,,,,,,,,,,,
,,,,,,,,,,,,,train53_audtrain1,2024-01-20_10h37.03.661,AudTraining1,2021.2.3,MacIntel,120.4819277,,,,,,,,,,,,,,RegPatterns/27d-ms_1_1_2_3_1_3_1_unit270.mp3,3,2,0,2,0,1,,,,,,,,,,,,,,,,,,
,,,,,,,,,,,,,train53_audtrain1,2024-01-20_10h37.03.661,AudTraining1,2021.2.3,MacIntel,120.4819277,,,,,,,,,,,,,,,,,,,,,3,4.7605,0,5,5,10,1,RegPatterns/27-ms_1_1_2_3_1_1_3_unit270.mp3,RegPatterns/27d-ms_1_1_2_3_1_3_1_unit270.mp3,,,,,,,,,
,,,,,,,,,,,,,train53_audtrain1,2024-01-20_10h37.03.661,AudTraining1,2021.2.3,MacIntel,120.4819277,,,,,,,,,,,,,,RegPatterns/13-ms_2_1_1_2_2_4_unit230.mp3,0,0,0,0,0,1,,,,,,,,,,,,,,,,,,
,,,,,,,,,,,,,train53_audtrain1,2024-01-20_10h37.03.661,AudTraining1,2021.2.3,MacIntel,120.4819277,,,,,,,,,,,,,,RegPatterns/13-ms_2_1_1_2_2_4_unit230.mp3,0,1,0,1,0,1,,,,,,,,,,,,,,,,,,
,,,,,,,,,,,,,train53_audtrain1,2024-01-20_10h37.03.661,AudTraining1,2021.2.3,MacIntel,120.4819277,,,,,,,,,,,,,,RegPatterns/13d-ms_1_1_2_2_2_4_unit230.mp3,3,2,0,2,0,1,,,,,,,,,,,,,,,,,,
,,,,,,,,,,,,,train53_audtrain1,2024-01-20_10h37.03.661,AudTraining1,2021.2.3,MacIntel,120.4819277,,,,,,,,,,,,,,,,,,,,,3,4.5703,0,6,6,4,1,RegPatterns/13-ms_2_1_1_2_2_4_unit230.mp3,RegPatterns/13d-ms_1_1_2_2_2_4_unit230.mp3,,,,,,,,,
,,,,,,,,,,,,,train53_audtrain1,2024-01-20_10h37.03.661,AudTraining1,2021.2.3,MacIntel,120.4819277,,,,,,,,,,,,,,RegPatterns/24-ms_4_2_2_1_1_1_1_unit230.mp3,0,0,0,0,0,1,,,,,,,,,,,,,,,,,,
,,,,,,,,,,,,,train53_audtrain1,2024-01-20_10h37.03.661,AudTraining1,2021.2.3,MacIntel,120.4819277,,,,,,,,,,,,,,RegPatterns/24d-ms_4_2_1_1_2_1_1_unit230.mp3,2,1,0,1,0,1,,,,,,,,,,,,,,,,,,
,,,,,,,,,,,,,train53_audtrain1,2024-01-20_10h37.03.661,AudTraining1,2021.2.3,MacIntel,120.4819277,,,,,,,,,,,,,,RegPatterns/24-ms_4_2_2_1_1_1_1_unit230.mp3,0,2,0,2,0,1,,,,,,,,,,,,,,,,,,
,,,,,,,,,,,,,train53_audtrain1,2024-01-20_10h37.03.661,AudTraining1,2021.2.3,MacIntel,120.4819277,,,,,,,,,,,,,,,,,,,,,3,4.9828,0,7,7,9,1,RegPatterns/24-ms_4_2_2_1_1_1_1_unit230.mp3,RegPatterns/24d-ms_4_2_1_1_2_1_1_unit230.mp3,,,,,,,,,
,,,,,,,,,,,,,train53_audtrain1,2024-01-20_10h37.03.661,AudTraining1,2021.2.3,MacIntel,120.4819277,,,,,,,,,,,,,,RegPatterns/15-ms_2_2_1_3_3_1_unit270.mp3,0,0,0,0,0,1,,,,,,,,,,,,,,,,,,
,,,,,,,,,,,,,train53_audtrain1,2024-01-20_10h37.03.661,AudTraining1,2021.2.3,MacIntel,120.4819277,,,,,,,,,,,,,,RegPatterns/15d-ms_2_2_1_3_1_3_unit270.mp3,2,1,0,1,0,1,,,,,,,,,,,,,,,,,,
,,,,,,,,,,,,,train53_audtrain1,2024-01-20_10h37.03.661,AudTraining1,2021.2.3,MacIntel,120.4819277,,,,,,,,,,,,,,RegPatterns/15-ms_2_2_1_3_3_1_unit270.mp3,0,2,0,2,0,1,,,,,,,,,,,,,,,,,,
,,,,,,,,,,,,,train53_audtrain1,2024-01-20_10h37.03.661,AudTraining1,2021.2.3,MacIntel,120.4819277,,,,,,,,,,,,,,,,,,,,,2,0.6718,0,8,8,5,1,RegPatterns/15-ms_2_2_1_3_3_1_unit270.mp3,RegPatterns/15d-ms_2_2_1_3_1_3_unit270.mp3,,,,,,,,,
,,,,,,,,,,,,,train53_audtrain1,2024-01-20_10h37.03.661,AudTraining1,2021.2.3,MacIntel,120.4819277,,,,,,,,,,,,,,RegPatterns/07-ms_1_1_2_3_1_4_unit230.mp3,0,0,0,0,0,1,,,,,,,,,,,,,,,,,,
,,,,,,,,,,,,,train53_audtrain1,2024-01-20_10h37.03.661,AudTraining1,2021.2.3,MacIntel,120.4819277,,,,,,,,,,,,,,RegPatterns/07-ms_1_1_2_3_1_4_unit230.mp3,0,1,0,1,0,1,,,,,,,,,,,,,,,,,,
,,,,,,,,,,,,,train53_audtrain1,2024-01-20_10h37.03.661,AudTraining1,2021.2.3,MacIntel,120.4819277,,,,,,,,,,,,,,RegPatterns/07d-ms_1_1_2_1_3_4_unit230.mp3,3,2,0,2,0,1,,,,,,,,,,,,,,,,,,
,,,,,,,,,,,,,train53_audtrain1,2024-01-20_10h37.03.661,AudTraining1,2021.2.3,MacIntel,120.4819277,,,,,,,,,,,,,,,,,,,,,3,8.3669,0,9,9,2,1,RegPatterns/07-ms_1_1_2_3_1_4_unit230.mp3,RegPatterns/07d-ms_1_1_2_1_3_4_unit230.mp3,,,,,,,,,
,,,,,,,,,,,,,train53_audtrain1,2024-01-20_10h37.03.661,AudTraining1,2021.2.3,MacIntel,120.4819277,,,,,,,,,,,,,,RegPatterns/28-ms_2_2_1_1_1_1_4_unit250.mp3,0,0,0,0,0,1,,,,,,,,,,,,,,,,,,
,,,,,,,,,,,,,train53_audtrain1,2024-01-20_10h37.03.661,AudTraining1,2021.2.3,MacIntel,120.4819277,,,,,,,,,,,,,,RegPatterns/28-ms_2_2_1_1_1_1_4_unit250.mp3,0,1,0,1,0,1,,,,,,,,,,,,,,,,,,
,,,,,,,,,,,,,train53_audtrain1,2024-01-20_10h37.03.661,AudTraining1,2021.2.3,MacIntel,120.4819277,,,,,,,,,,,,,,RegPatterns/28d-ms_2_1_1_2_1_1_4_unit250.mp3,3,2,0,2,0,1,,,,,,,,,,,,,,,,,,
,,,,,,,,,,,,,train53_audtrain1,2024-01-20_10h37.03.661,AudTraining1,2021.2.3,MacIntel,120.4819277,,,,,,,,,,RegPatterns/Noise.mp3,RegPatterns/Noise.mp3,,,,,,,,,,1,0.9958,,,,,,,,g,1.3073,0,0,0,0,1,,
,,,,,,,,,,,,,train53_audtrain1,2024-01-20_10h37.03.661,AudTraining1,2021.2.3,MacIntel,120.4819277,,,,,,,,,,,,,,,,,,,,,,,0,10,10,11,1,RegPatterns/28-ms_2_2_1_1_1_1_4_unit250.mp3,RegPatterns/28d-ms_2_1_1_2_1_1_4_unit250.mp3,,,,,,,,,
,,,,,,,,,,,,,train53_audtrain1,2024-01-20_10h37.03.661,AudTraining1,2021.2.3,MacIntel,120.4819277,,,,,,,,,,,,,,RegPatterns/11-ms_2_2_3_1_1_3_unit250.mp3,0,0,0,0,0,1,,,,,,,,,,,,,,,,,,
,,,,,,,,,,,,,train53_audtrain1,2024-01-20_10h37.03.661,AudTraining1,2021.2.3,MacIntel,120.4819277,,,,,,,,,,,,,,RegPatterns/11-ms_2_2_3_1_1_3_unit250.mp3,0,1,0,1,0,1,,,,,,,,,,,,,,,,,,
,,,,,,,,,,,,,train53_audtrain1,2024-01-20_10h37.03.661,AudTraining1,2021.2.3,MacIntel,120.4819277,,,,,,,,,,,,,,RegPatterns/11d-ms_2_2_3_1_3_1_unit250.mp3,3,2,0,2,0,1,,,,,,,,,,,,,,,,,,
,,,,,,,,,,,,,train53_audtrain1,2024-01-20_10h37.03.661,AudTraining1,2021.2.3,MacIntel,120.4819277,,,,,,,,,,,,,,,,,,,,,2,3.5172,0,11,11,3,1,RegPatterns/11-ms_2_2_3_1_1_3_unit250.mp3,RegPatterns/11d-ms_2_2_3_1_3_1_unit250.mp3,,,,,,,,,
,,,,,,,,,,,,,train53_audtrain1,2024-01-20_10h37.03.661,AudTraining1,2021.2.3,MacIntel,120.4819277,,,,,,,,,,,,,,RegPatterns/13d-ms_1_1_2_2_2_4_unit230.mp3,1,0,0,0,0,1,,,,,,,,,,,,,,,,,,
,,,,,,,,,,,,,train53_audtrain1,2024-01-20_10h37.03.661,AudTraining1,2021.2.3,MacIntel,120.4819277,,,,,,,,,,,,,,RegPatterns/13-ms_2_1_1_2_2_4_unit230.mp3,0,1,0,1,0,1,,,,,,,,,,,,,,,,,,
,,,,,,,,,,,,,train53_audtrain1,2024-01-20_10h37.03.661,AudTraining1,2021.2.3,MacIntel,120.4819277,,,,,,,,,,,,,,RegPatterns/13-ms_2_1_1_2_2_4_unit230.mp3,0,2,0,2,0,1,,,,,,,,,,,,,,,,,,
,,,,,,,,,,,,,train53_audtrain1,2024-01-20_10h37.03.661,AudTraining1,2021.2.3,MacIntel,120.4819277,,,,,,,,,,,,,,,,,,,,,3,1.6486,1,0,12,4,1,RegPatterns/13-ms_2_1_1_2_2_4_unit230.mp3,RegPatterns/13d-ms_1_1_2_2_2_4_unit230.mp3,,,,,,,,,
,,,,,,,,,,,,,train53_audtrain1,2024-01-20_10h37.03.661,AudTraining1,2021.2.3,MacIntel,120.4819277,,,,,,,,,,,,,,RegPatterns/11-ms_2_2_3_1_1_3_unit250.mp3,0,0,0,0,0,1,,,,,,,,,,,,,,,,,,
,,,,,,,,,,,,,train53_audtrain1,2024-01-20_10h37.03.661,AudTraining1,2021.2.3,MacIntel,120.4819277,,,,,,,,,,,,,,RegPatterns/11d-ms_2_2_3_1_3_1_unit250.mp3,2,1,0,1,0,1,,,,,,,,,,,,,,,,,,
,,,,,,,,,,,,,train53_audtrain1,2024-01-20_10h37.03.661,AudTraining1,2021.2.3,MacIntel,120.4819277,,,,,,,,,,,,,,RegPatterns/11-ms_2_2_3_1_1_3_unit250.mp3,0,2,0,2,0,1,,,,,,,,,,,,,,,,,,
,,,,,,,,,,,,,train53_audtrain1,2024-01-20_10h37.03.661,AudTraining1,2021.2.3,MacIntel,120.4819277,,,,,,,,,,,,,,,,,,,,,2,4.7256,1,1,13,3,1,RegPatterns/11-ms_2_2_3_1_1_3_unit250.mp3,RegPatterns/11d-ms_2_2_3_1_3_1_unit250.mp3,,,,,,,,,
,,,,,,,,,,,,,train53_audtrain1,2024-01-20_10h37.03.661,AudTraining1,2021.2.3,MacIntel,120.4819277,,,,,,,,,,,,,,RegPatterns/06-ms_4_3_1_2_2_unit270.mp3,0,0,0,0,0,1,,,,,,,,,,,,,,,,,,
,,,,,,,,,,,,,train53_audtrain1,2024-01-20_10h37.03.661,AudTraining1,2021.2.3,MacIntel,120.4819277,,,,,,,,,,,,,,RegPatterns/06d-ms_4_1_3_2_2_unit270.mp3,2,1,0,1,0,1,,,,,,,,,,,,,,,,,,
,,,,,,,,,,,,,train53_audtrain1,2024-01-20_10h37.03.661,AudTraining1,2021.2.3,MacIntel,120.4819277,,,,,,,,,,,,,,RegPatterns/06-ms_4_3_1_2_2_unit270.mp3,0,2,0,2,0,1,,,,,,,,,,,,,,,,,,
,,,,,,,,,,,,,train53_audtrain1,2024-01-20_10h37.03.661,AudTraining1,2021.2.3,MacIntel,120.4819277,,,,,,,,,,,,,,,,,,,,,3,4.2048,1,2,14,1,1,RegPatterns/06-ms_4_3_1_2_2_unit270.mp3,RegPatterns/06d-ms_4_1_3_2_2_unit270.mp3,,,,,,,,,
,,,,,,,,,,,,,train53_audtrain1,2024-01-20_10h37.03.661,AudTraining1,2021.2.3,MacIntel,120.4819277,,,,,,,,,,,,,,RegPatterns/07-ms_1_1_2_3_1_4_unit230.mp3,0,0,0,0,0,1,,,,,,,,,,,,,,,,,,
,,,,,,,,,,,,,train53_audtrain1,2024-01-20_10h37.03.661,AudTraining1,2021.2.3,MacIntel,120.4819277,,,,,,,,,,,,,,RegPatterns/07d-ms_1_1_2_1_3_4_unit230.mp3,2,1,0,1,0,1,,,,,,,,,,,,,,,,,,
,,,,,,,,,,,,,train53_audtrain1,2024-01-20_10h37.03.661,AudTraining1,2021.2.3,MacIntel,120.4819277,,,,,,,,,,,,,,RegPatterns/07-ms_1_1_2_3_1_4_unit230.mp3,0,2,0,2,0,1,,,,,,,,,,,,,,,,,,
,,,,,,,,,,,,,train53_audtrain1,2024-01-20_10h37.03.661,AudTraining1,2021.2.3,MacIntel,120.4819277,,,,,,,,,,,,,,,,,,,,,2,1.1033,1,3,15,2,1,RegPatterns/07-ms_1_1_2_3_1_4_unit230.mp3,RegPatterns/07d-ms_1_1_2_1_3_4_unit230.mp3,,,,,,,,,
,,,,,,,,,,,,,train53_audtrain1,2024-01-20_10h37.03.661,AudTraining1,2021.2.3,MacIntel,120.4819277,,,,,,,,,,,,,,RegPatterns/17-ms_4_1_1_2_3_1_unit250.mp3,0,0,0,0,0,1,,,,,,,,,,,,,,,,,,
,,,,,,,,,,,,,train53_audtrain1,2024-01-20_10h37.03.661,AudTraining1,2021.2.3,MacIntel,120.4819277,,,,,,,,,,,,,,RegPatterns/17d-ms_4_1_1_2_1_3_unit250.mp3,2,1,0,1,0,1,,,,,,,,,,,,,,,,,,
,,,,,,,,,,,,,train53_audtrain1,2024-01-20_10h37.03.661,AudTraining1,2021.2.3,MacIntel,120.4819277,,,,,,,,,,,,,,RegPatterns/17-ms_4_1_1_2_3_1_unit250.mp3,0,2,0,2,0,1,,,,,,,,,,,,,,,,,,
,,,,,,,,,,,,,train53_audtrain1,2024-01-20_10h37.03.661,AudTraining1,2021.2.3,MacIntel,120.4819277,,,,,,,,,,,,,,,,,,,,,2,0.3996,1,4,16,6,1,RegPatterns/17-ms_4_1_1_2_3_1_unit250.mp3,RegPatterns/17d-ms_4_1_1_2_1_3_unit250.mp3,,,,,,,,,
,,,,,,,,,,,,,train53_audtrain1,2024-01-20_10h37.03.661,AudTraining1,2021.2.3,MacIntel,120.4819277,,,,,,,,,,,,,,RegPatterns/28-ms_2_2_1_1_1_1_4_unit250.mp3,0,0,0,0,0,1,,,,,,,,,,,,,,,,,,
,,,,,,,,,,,,,train53_audtrain1,2024-01-20_10h37.03.661,AudTraining1,2021.2.3,MacIntel,120.4819277,,,,,,,,,,,,,,RegPatterns/28d-ms_2_1_1_2_1_1_4_unit250.mp3,2,1,0,1,0,1,,,,,,,,,,,,,,,,,,
,,,,,,,,,,,,,train53_audtrain1,2024-01-20_10h37.03.661,AudTraining1,2021.2.3,MacIntel,120.4819277,,,,,,,,,,,,,,RegPatterns/28-ms_2_2_1_1_1_1_4_unit250.mp3,0,2,0,2,0,1,,,,,,,,,,,,,,,,,,
,,,,,,,,,,,,,train53_audtrain1,2024-01-20_10h37.03.661,AudTraining1,2021.2.3,MacIntel,120.4819277,,,,,,,,,,,,,,,,,,,,,2,1.234,1,5,17,11,1,RegPatterns/28-ms_2_2_1_1_1_1_4_unit250.mp3,RegPatterns/28d-ms_2_1_1_2_1_1_4_unit250.mp3,,,,,,,,,
,,,,,,,,,,,,,train53_audtrain1,2024-01-20_10h37.03.661,AudTraining1,2021.2.3,MacIntel,120.4819277,,,,,,,,,,,,,,RegPatterns/21-ms_2_1_1_3_1_1_3_unit270.mp3,0,0,0,0,0,1,,,,,,,,,,,,,,,,,,
,,,,,,,,,,,,,train53_audtrain1,2024-01-20_10h37.03.661,AudTraining1,2021.2.3,MacIntel,120.4819277,,,,,,,,,,,,,,RegPatterns/21d-ms_2_1_1_3_1_3_1_unit270.mp3,2,1,0,1,0,1,,,,,,,,,,,,,,,,,,
,,,,,,,,,,,,,train53_audtrain1,2024-01-20_10h37.03.661,AudTraining1,2021.2.3,MacIntel,120.4819277,,,,,,,,,,,,,,RegPatterns/21-ms_2_1_1_3_1_1_3_unit270.mp3,0,2,0,2,0,1,,,,,,,,,,,,,,,,,,
,,,,,,,,,,,,,train53_audtrain1,2024-01-20_10h37.03.661,AudTraining1,2021.2.3,MacIntel,120.4819277,,,,,,,,,,,,,,,,,,,,,1,1.3471,1,6,18,7,1,RegPatterns/21-ms_2_1_1_3_1_1_3_unit270.mp3,RegPatterns/21d-ms_2_1_1_3_1_3_1_unit270.mp3,,,,,,,,,
,,,,,,,,,,,,,train53_audtrain1,2024-01-20_10h37.03.661,AudTraining1,2021.2.3,MacIntel,120.4819277,,,,,,,,,,,,,,RegPatterns/24d-ms_4_2_1_1_2_1_1_unit230.mp3,1,0,0,0,0,1,,,,,,,,,,,,,,,,,,
,,,,,,,,,,,,,train53_audtrain1,2024-01-20_10h37.03.661,AudTraining1,2021.2.3,MacIntel,120.4819277,,,,,,,,,,,,,,RegPatterns/24-ms_4_2_2_1_1_1_1_unit230.mp3,0,1,0,1,0,1,,,,,,,,,,,,,,,,,,
,,,,,,,,,,,,,train53_audtrain1,2024-01-20_10h37.03.661,AudTraining1,2021.2.3,MacIntel,120.4819277,,,,,,,,,,,,,,RegPatterns/24-ms_4_2_2_1_1_1_1_unit230.mp3,0,2,0,2,0,1,,,,,,,,,,,,,,,,,,
,,,,,,,,,,,,,train53_audtrain1,2024-01-20_10h37.03.661,AudTraining1,2021.2.3,MacIntel,120.4819277,,,,,,,,,,,,,,,,,,,,,2,12.5642,1,7,19,9,1,RegPatterns/24-ms_4_2_2_1_1_1_1_unit230.mp3,RegPatterns/24d-ms_4_2_1_1_2_1_1_unit230.mp3,,,,,,,,,
,,,,,,,,,,,,,train53_audtrain1,2024-01-20_10h37.03.661,AudTraining1,2021.2.3,MacIntel,120.4819277,,,,,,,,,,,,,,RegPatterns/04d-ms_4_3_1_3_1_unit230.mp3,1,0,0,0,0,1,,,,,,,,,,,,,,,,,,
,,,,,,,,,,,,,train53_audtrain1,2024-01-20_10h37.03.661,AudTraining1,2021.2.3,MacIntel,120.4819277,,,,,,,,,,,,,,RegPatterns/04-ms_4_1_3_3_1_unit230.mp3,0,1,0,1,0,1,,,,,,,,,,,,,,,,,,
,,,,,,,,,,,,,train53_audtrain1,2024-01-20_10h37.03.661,AudTraining1,2021.2.3,MacIntel,120.4819277,,,,,,,,,,,,,,RegPatterns/04-ms_4_1_3_3_1_unit230.mp3,0,2,0,2,0,1,,,,,,,,,,,,,,,,,,
,,,,,,,,,,,,,train53_audtrain1,2024-01-20_10h37.03.661,AudTraining1,2021.2.3,MacIntel,120.4819277,,,,,,,,,,,,,,,,,,,,,2,6.5355,1,8,20,0,1,RegPatterns/04-ms_4_1_3_3_1_unit230.mp3,RegPatterns/04d-ms_4_3_1_3_1_unit230.mp3,,,,,,,,,
,,,,,,,,,,,,,train53_audtrain1,2024-01-20_10h37.03.661,AudTraining1,2021.2.3,MacIntel,120.4819277,,,,,,,,,,,,,,RegPatterns/15-ms_2_2_1_3_3_1_unit270.mp3,0,0,0,0,0,1,,,,,,,,,,,,,,,,,,
,,,,,,,,,,,,,train53_audtrain1,2024-01-20_10h37.03.661,AudTraining1,2021.2.3,MacIntel,120.4819277,,,,,,,,,,,,,,RegPatterns/15-ms_2_2_1_3_3_1_unit270.mp3,0,1,0,1,0,1,,,,,,,,,,,,,,,,,,
,,,,,,,,,,,,,train53_audtrain1,2024-01-20_10h37.03.661,AudTraining1,2021.2.3,MacIntel,120.4819277,,,,,,,,,,,,,,RegPatterns/15d-ms_2_2_1_3_1_3_unit270.mp3,3,2,0,2,0,1,,,,,,,,,,,,,,,,,,
,,,,,,,,,,,,,train53_audtrain1,2024-01-20_10h37.03.661,AudTraining1,2021.2.3,MacIntel,120.4819277,,,,,,,,,,,,,,,,,,,,,2,8.1257,1,9,21,5,1,RegPatterns/15-ms_2_2_1_3_3_1_unit270.mp3,RegPatterns/15d-ms_2_2_1_3_1_3_unit270.mp3,,,,,,,,,
,,,,,,,,,,,,,train53_audtrain1,2024-01-20_10h37.03.661,AudTraining1,2021.2.3,MacIntel,120.4819277,,,,,,,,,,,,,,RegPatterns/23d-ms_4_1_1_1_1_1_3_unit250.mp3,1,0,0,0,0,1,,,,,,,,,,,,,,,,,,
,,,,,,,,,,,,,train53_audtrain1,2024-01-20_10h37.03.661,AudTraining1,2021.2.3,MacIntel,120.4819277,,,,,,,,,,,,,,RegPatterns/23-ms_4_1_1_1_1_3_1_unit250.mp3,0,1,0,1,0,1,,,,,,,,,,,,,,,,,,
,,,,,,,,,,,,,train53_audtrain1,2024-01-20_10h37.03.661,AudTraining1,2021.2.3,MacIntel,120.4819277,,,,,,,,,,,,,,RegPatterns/23-ms_4_1_1_1_1_3_1_unit250.mp3,0,2,0,2,0,1,,,,,,,,,,,,,,,,,,
,,,,,,,,,,,,,train53_audtrain1,2024-01-20_10h37.03.661,AudTraining1,2021.2.3,MacIntel,120.4819277,,,,,,,,,,,,,,,,,,,,,2,7.4687,1,10,22,8,1,RegPatterns/23-ms_4_1_1_1_1_3_1_unit250.mp3,RegPatterns/23d-ms_4_1_1_1_1_1_3_unit250.mp3,,,,,,,,,
,,,,,,,,,,,,,train53_audtrain1,2024-01-20_10h37.03.661,AudTraining1,2021.2.3,MacIntel,120.4819277,,,,,,,,,,,,,,RegPatterns/27d-ms_1_1_2_3_1_3_1_unit270.mp3,1,0,0,0,0,1,,,,,,,,,,,,,,,,,,
,,,,,,,,,,,,,train53_audtrain1,2024-01-20_10h37.03.661,AudTraining1,2021.2.3,MacIntel,120.4819277,,,,,,,,,,,,,,RegPatterns/27-ms_1_1_2_3_1_1_3_unit270.mp3,0,1,0,1,0,1,,,,,,,,,,,,,,,,,,
,,,,,,,,,,,,,train53_audtrain1,2024-01-20_10h37.03.661,AudTraining1,2021.2.3,MacIntel,120.4819277,,,,,,,,,,,,,,RegPatterns/27-ms_1_1_2_3_1_1_3_unit270.mp3,0,2,0,2,0,1,,,,,,,,,,,,,,,,,,
,,,,,,,,,,,,,train53_audtrain1,2024-01-20_10h37.03.661,AudTraining1,2021.2.3,MacIntel,120.4819277,,,,,,,,,,,,,,,,,,,,,3,2.4233,1,11,23,10,1,RegPatterns/27-ms_1_1_2_3_1_1_3_unit270.mp3,RegPatterns/27d-ms_1_1_2_3_1_3_1_unit270.mp3,,,,,,,,,
,,,,,,,,,,,,,train53_audtrain1,2024-01-20_10h37.03.661,AudTraining1,2021.2.3,MacIntel,120.4819277,,,,,,,,,,,,,,RegPatterns/15d-ms_2_2_1_3_1_3_unit270.mp3,1,0,0,0,0,1,,,,,,,,,,,,,,,,,,
,,,,,,,,,,,,,train53_audtrain1,2024-01-20_10h37.03.661,AudTraining1,2021.2.3,MacIntel,120.4819277,,,,,,,,,,,,,,RegPatterns/15-ms_2_2_1_3_3_1_unit270.mp3,0,1,0,1,0,1,,,,,,,,,,,,,,,,,,
,,,,,,,,,,,,,train53_audtrain1,2024-01-20_10h37.03.661,AudTraining1,2021.2.3,MacIntel,120.4819277,,,,,,,,,,,,,,RegPatterns/15-ms_2_2_1_3_3_1_unit270.mp3,0,2,0,2,0,1,,,,,,,,,,,,,,,,,,
,,,,,,,,,,,,,train53_audtrain1,2024-01-20_10h37.03.661,AudTraining1,2021.2.3,MacIntel,120.4819277,,,,,,,,,,RegPatterns/Noise.mp3,RegPatterns/Noise.mp3,,,,,,,,,,2,2.5349,,,,,,,,2,7.3852,0,0,0,0,1,,
,,,,,,,,,,,,,train53_audtrain1,2024-01-20_10h37.03.661,AudTraining1,2021.2.3,MacIntel,120.4819277,,,,,,,,,,,,,,,,,,,,,,,2,0,24,5,1,RegPatterns/15-ms_2_2_1_3_3_1_unit270.mp3,RegPatterns/15d-ms_2_2_1_3_1_3_unit270.mp3,,,,,,,,,
,,,,,,,,,,,,,train53_audtrain1,2024-01-20_10h37.03.661,AudTraining1,2021.2.3,MacIntel,120.4819277,,,,,,,,,,,,,,RegPatterns/04-ms_4_1_3_3_1_unit230.mp3,0,0,0,0,0,1,,,,,,,,,,,,,,,,,,
,,,,,,,,,,,,,train53_audtrain1,2024-01-20_10h37.03.661,AudTraining1,2021.2.3,MacIntel,120.4819277,,,,,,,,,,,,,,RegPatterns/04-ms_4_1_3_3_1_unit230.mp3,0,1,0,1,0,1,,,,,,,,,,,,,,,,,,
,,,,,,,,,,,,,train53_audtrain1,2024-01-20_10h37.03.661,AudTraining1,2021.2.3,MacIntel,120.4819277,,,,,,,,,,,,,,RegPatterns/04d-ms_4_3_1_3_1_unit230.mp3,3,2,0,2,0,1,,,,,,,,,,,,,,,,,,
,,,,,,,,,,,,,train53_audtrain1,2024-01-20_10h37.03.661,AudTraining1,2021.2.3,MacIntel,120.4819277,,,,,,,,,,,,,,,,,,,,,2,3.3852,2,1,25,0,1,RegPatterns/04-ms_4_1_3_3_1_unit230.mp3,RegPatterns/04d-ms_4_3_1_3_1_unit230.mp3,,,,,,,,,
,,,,,,,,,,,,,train53_audtrain1,2024-01-20_10h37.03.661,AudTraining1,2021.2.3,MacIntel,120.4819277,,,,,,,,,,,,,,RegPatterns/13-ms_2_1_1_2_2_4_unit230.mp3,0,0,0,0,0,1,,,,,,,,,,,,,,,,,,
,,,,,,,,,,,,,train53_audtrain1,2024-01-20_10h37.03.661,AudTraining1,2021.2.3,MacIntel,120.4819277,,,,,,,,,,,,,,RegPatterns/13d-ms_1_1_2_2_2_4_unit230.mp3,2,1,0,1,0,1,,,,,,,,,,,,,,,,,,
,,,,,,,,,,,,,train53_audtrain1,2024-01-20_10h37.03.661,AudTraining1,2021.2.3,MacIntel,120.4819277,,,,,,,,,,,,,,RegPatterns/13-ms_2_1_1_2_2_4_unit230.mp3,0,2,0,2,0,1,,,,,,,,,,,,,,,,,,
,,,,,,,,,,,,,train53_audtrain1,2024-01-20_10h37.03.661,AudTraining1,2021.2.3,MacIntel,120.4819277,,,,,,,,,,,,,,,,,,,,,2,5.0179,2,2,26,4,1,RegPatterns/13-ms_2_1_1_2_2_4_unit230.mp3,RegPatterns/13d-ms_1_1_2_2_2_4_unit230.mp3,,,,,,,,,
,,,,,,,,,,,,,train53_audtrain1,2024-01-20_10h37.03.661,AudTraining1,2021.2.3,MacIntel,120.4819277,,,,,,,,,,,,,,RegPatterns/28d-ms_2_1_1_2_1_1_4_unit250.mp3,1,0,0,0,0,1,,,,,,,,,,,,,,,,,,
,,,,,,,,,,,,,train53_audtrain1,2024-01-20_10h37.03.661,AudTraining1,2021.2.3,MacIntel,120.4819277,,,,,,,,,,,,,,RegPatterns/28-ms_2_2_1_1_1_1_4_unit250.mp3,0,1,0,1,0,1,,,,,,,,,,,,,,,,,,
,,,,,,,,,,,,,train53_audtrain1,2024-01-20_10h37.03.661,AudTraining1,2021.2.3,MacIntel,120.4819277,,,,,,,,,,,,,,RegPatterns/28-ms_2_2_1_1_1_1_4_unit250.mp3,0,2,0,2,0,1,,,,,,,,,,,,,,,,,,
,,,,,,,,,,,,,train53_audtrain1,2024-01-20_10h37.03.661,AudTraining1,2021.2.3,MacIntel,120.4819277,,,,,,,,,,,,,,,,,,,,,3,1.5841,2,3,27,11,1,RegPatterns/28-ms_2_2_1_1_1_1_4_unit250.mp3,RegPatterns/28d-ms_2_1_1_2_1_1_4_unit250.mp3,,,,,,,,,
,,,,,,,,,,,,,train53_audtrain1,2024-01-20_10h37.03.661,AudTraining1,2021.2.3,MacIntel,120.4819277,,,,,,,,,,,,,,RegPatterns/23-ms_4_1_1_1_1_3_1_unit250.mp3,0,0,0,0,0,1,,,,,,,,,,,,,,,,,,
,,,,,,,,,,,,,train53_audtrain1,2024-01-20_10h37.03.661,AudTraining1,2021.2.3,MacIntel,120.4819277,,,,,,,,,,,,,,RegPatterns/23-ms_4_1_1_1_1_3_1_unit250.mp3,0,1,0,1,0,1,,,,,,,,,,,,,,,,,,
,,,,,,,,,,,,,train53_audtrain1,2024-01-20_10h37.03.661,AudTraining1,2021.2.3,MacIntel,120.4819277,,,,,,,,,,,,,,RegPatterns/23d-ms_4_1_1_1_1_1_3_unit250.mp3,3,2,0,2,0,1,,,,,,,,,,,,,,,,,,
,,,,,,,,,,,,,train53_audtrain1,2024-01-20_10h37.03.661,AudTraining1,2021.2.3,MacIntel,120.4819277,,,,,,,,,,,,,,,,,,,,,2,4.2543,2,4,28,8,1,RegPatterns/23-ms_4_1_1_1_1_3_1_unit250.mp3,RegPatterns/23d-ms_4_1_1_1_1_1_3_unit250.mp3,,,,,,,,,
,,,,,,,,,,,,,train53_audtrain1,2024-01-20_10h37.03.661,AudTraining1,2021.2.3,MacIntel,120.4819277,,,,,,,,,,,,,,RegPatterns/07d-ms_1_1_2_1_3_4_unit230.mp3,1,0,0,0,0,1,,,,,,,,,,,,,,,,,,
,,,,,,,,,,,,,train53_audtrain1,2024-01-20_10h37.03.661,AudTraining1,2021.2.3,MacIntel,120.4819277,,,,,,,,,,,,,,RegPatterns/07-ms_1_1_2_3_1_4_unit230.mp3,0,1,0,1,0,1,,,,,,,,,,,,,,,,,,
,,,,,,,,,,,,,train53_audtrain1,2024-01-20_10h37.03.661,AudTraining1,2021.2.3,MacIntel,120.4819277,,,,,,,,,,,,,,RegPatterns/07-ms_1_1_2_3_1_4_unit230.mp3,0,2,0,2,0,1,,,,,,,,,,,,,,,,,,
,,,,,,,,,,,,,train53_audtrain1,2024-01-20_10h37.03.661,AudTraining1,2021.2.3,MacIntel,120.4819277,,,,,,,,,,,,,,,,,,,,,2,3.1512,2,5,29,2,1,RegPatterns/07-ms_1_1_2_3_1_4_unit230.mp3,RegPatterns/07d-ms_1_1_2_1_3_4_unit230.mp3,,,,,,,,,
,,,,,,,,,,,,,train53_audtrain1,2024-01-20_10h37.03.661,AudTraining1,2021.2.3,MacIntel,120.4819277,,,,,,,,,,,,,,RegPatterns/17d-ms_4_1_1_2_1_3_unit250.mp3,1,0,0,0,0,1,,,,,,,,,,,,,,,,,,
,,,,,,,,,,,,,train53_audtrain1,2024-01-20_10h37.03.661,AudTraining1,2021.2.3,MacIntel,120.4819277,,,,,,,,,,,,,,RegPatterns/17-ms_4_1_1_2_3_1_unit250.mp3,0,1,0,1,0,1,,,,,,,,,,,,,,,,,,
,,,,,,,,,,,,,train53_audtrain1,2024-01-20_10h37.03.661,AudTraining1,2021.2.3,MacIntel,120.4819277,,,,,,,,,,,,,,RegPatterns/17-ms_4_1_1_2_3_1_unit250.mp3,0,2,0,2,0,1,,,,,,,,,,,,,,,,,,
,,,,,,,,,,,,,train53_audtrain1,2024-01-20_10h37.03.661,AudTraining1,2021.2.3,MacIntel,120.4819277,,,,,,,,,,,,,,,,,,,,,2,1.3837,2,6,30,6,1,RegPatterns/17-ms_4_1_1_2_3_1_unit250.mp3,RegPatterns/17d-ms_4_1_1_2_1_3_unit250.mp3,,,,,,,,,
,,,,,,,,,,,,,train53_audtrain1,2024-01-20_10h37.03.661,AudTraining1,2021.2.3,MacIntel,120.4819277,,,,,,,,,,,,,,RegPatterns/11d-ms_2_2_3_1_3_1_unit250.mp3,1,0,0,0,0,1,,,,,,,,,,,,,,,,,,
,,,,,,,,,,,,,train53_audtrain1,2024-01-20_10h37.03.661,AudTraining1,2021.2.3,MacIntel,120.4819277,,,,,,,,,,,,,,RegPatterns/11-ms_2_2_3_1_1_3_unit250.mp3,0,1,0,1,0,1,,,,,,,,,,,,,,,,,,
,,,,,,,,,,,,,train53_audtrain1,2024-01-20_10h37.03.661,AudTraining1,2021.2.3,MacIntel,120.4819277,,,,,,,,,,,,,,RegPatterns/11-ms_2_2_3_1_1_3_unit250.mp3,0,2,0,2,0,1,,,,,,,,,,,,,,,,,,
,,,,,,,,,,,,,train53_audtrain1,2024-01-20_10h37.03.661,AudTraining1,2021.2.3,MacIntel,120.4819277,,,,,,,,,,,,,,,,,,,,,3,4.8949,2,7,31,3,1,RegPatterns/11-ms_2_2_3_1_1_3_unit250.mp3,RegPatterns/11d-ms_2_2_3_1_3_1_unit250.mp3,,,,,,,,,
,,,,,,,,,,,,,train53_audtrain1,2024-01-20_10h37.03.661,AudTraining1,2021.2.3,MacIntel,120.4819277,,,,,,,,,,,,,,RegPatterns/24-ms_4_2_2_1_1_1_1_unit230.mp3,0,0,0,0,0,1,,,,,,,,,,,,,,,,,,
,,,,,,,,,,,,,train53_audtrain1,2024-01-20_10h37.03.661,AudTraining1,2021.2.3,MacIntel,120.4819277,,,,,,,,,,,,,,RegPatterns/24-ms_4_2_2_1_1_1_1_unit230.mp3,0,1,0,1,0,1,,,,,,,,,,,,,,,,,,
,,,,,,,,,,,,,train53_audtrain1,2024-01-20_10h37.03.661,AudTraining1,2021.2.3,MacIntel,120.4819277,,,,,,,,,,,,,,RegPatterns/24d-ms_4_2_1_1_2_1_1_unit230.mp3,3,2,0,2,0,1,,,,,,,,,,,,,,,,,,
,,,,,,,,,,,,,train53_audtrain1,2024-01-20_10h37.03.661,AudTraining1,2021.2.3,MacIntel,120.4819277,,,,,,,,,,,,,,,,,,,,,3,3.8935,2,8,32,9,1,RegPatterns/24-ms_4_2_2_1_1_1_1_unit230.mp3,RegPatterns/24d-ms_4_2_1_1_2_1_1_unit230.mp3,,,,,,,,,
,,,,,,,,,,,,,train53_audtrain1,2024-01-20_10h37.03.661,AudTraining1,2021.2.3,MacIntel,120.4819277,,,,,,,,,,,,,,RegPatterns/21-ms_2_1_1_3_1_1_3_unit270.mp3,0,0,0,0,0,1,,,,,,,,,,,,,,,,,,
,,,,,,,,,,,,,train53_audtrain1,2024-01-20_10h37.03.661,AudTraining1,2021.2.3,MacIntel,120.4819277,,,,,,,,,,,,,,RegPatterns/21-ms_2_1_1_3_1_1_3_unit270.mp3,0,1,0,1,0,1,,,,,,,,,,,,,,,,,,
,,,,,,,,,,,,,train53_audtrain1,2024-01-20_10h37.03.661,AudTraining1,2021.2.3,MacIntel,120.4819277,,,,,,,,,,,,,,RegPatterns/21d-ms_2_1_1_3_1_3_1_unit270.mp3,3,2,0,2,0,1,,,,,,,,,,,,,,,,,,
,,,,,,,,,,,,,train53_audtrain1,2024-01-20_10h37.03.661,AudTraining1,2021.2.3,MacIntel,120.4819277,,,,,,,,,,,,,,,,,,,,,3,4.5934,2,9,33,7,1,RegPatterns/21-ms_2_1_1_3_1_1_3_unit270.mp3,RegPatterns/21d-ms_2_1_1_3_1_3_1_unit270.mp3,,,,,,,,,
,,,,,,,,,,,,,train53_audtrain1,2024-01-20_10h37.03.661,AudTraining1,2021.2.3,MacIntel,120.4819277,,,,,,,,,,,,,,RegPatterns/06d-ms_4_1_3_2_2_unit270.mp3,1,0,0,0,0,1,,,,,,,,,,,,,,,,,,
,,,,,,,,,,,,,train53_audtrain1,2024-01-20_10h37.03.661,AudTraining1,2021.2.3,MacIntel,120.4819277,,,,,,,,,,,,,,RegPatterns/06-ms_4_3_1_2_2_unit270.mp3,0,1,0,1,0,1,,,,,,,,,,,,,,,,,,
,,,,,,,,,,,,,train53_audtrain1,2024-01-20_10h37.03.661,AudTraining1,2021.2.3,MacIntel,120.4819277,,,,,,,,,,,,,,RegPatterns/06-ms_4_3_1_2_2_unit270.mp3,0,2,0,2,0,1,,,,,,,,,,,,,,,,,,
,,,,,,,,,,,,,train53_audtrain1,2024-01-20_10h37.03.661,AudTraining1,2021.2.3,MacIntel,120.4819277,,,,,,,,,,,,,,,,,,,,,2,3.0837,2,10,34,1,1,RegPatterns/06-ms_4_3_1_2_2_unit270.mp3,RegPatterns/06d-ms_4_1_3_2_2_unit270.mp3,,,,,,,,,
,,,,,,,,,,,,,train53_audtrain1,2024-01-20_10h37.03.661,AudTraining1,2021.2.3,MacIntel,120.4819277,,,,,,,,,,,,,,RegPatterns/27-ms_1_1_2_3_1_1_3_unit270.mp3,0,0,0,0,0,1,,,,,,,,,,,,,,,,,,
,,,,,,,,,,,,,train53_audtrain1,2024-01-20_10h37.03.661,AudTraining1,2021.2.3,MacIntel,120.4819277,,,,,,,,,,,,,,RegPatterns/27d-ms_1_1_2_3_1_3_1_unit270.mp3,2,1,0,1,0,1,,,,,,,,,,,,,,,,,,
,,,,,,,,,,,,,train53_audtrain1,2024-01-20_10h37.03.661,AudTraining1,2021.2.3,MacIntel,120.4819277,,,,,,,,,,,,,,RegPatterns/27-ms_1_1_2_3_1_1_3_unit270.mp3,0,2,0,2,0,1,,,,,,,,,,,,,,,,,,
,,,,,,,,,,,,,train53_audtrain1,2024-01-20_10h37.03.661,AudTraining1,2021.2.3,MacIntel,120.4819277,,,,,,,,,,,,,,,,,,,,,2,1.4031,2,11,35,10,1,RegPatterns/27-ms_1_1_2_3_1_1_3_unit270.mp3,RegPatterns/27d-ms_1_1_2_3_1_3_1_unit270.mp3,,,,,,,,,
,,,,,,,,,,,,,train53_audtrain1,2024-01-20_10h37.03.661,AudTraining1,2021.2.3,MacIntel,120.4819277,,,,,,,,,,,,,,,,,,,,,,,,,,,,,,,,,,,,,space,3.5944
