key_resp.keys,key_resp.rt,key_resp_2.keys,key_resp_2.rt,key_resp_3.keys,key_resp_3.rt,trials.thisRepN,trials.thisTrialN,trials.thisN,trials.thisIndex,trials.ran,volstandard,voldeviant,participant,date,expName,psychopyVersion,OS,frameRate,key_resp_4.keys,key_resp_4.rt,key_resp_5.keys,key_resp_5.rt,trials_2.thisRepN,trials_2.thisTrialN,trials_2.thisN,trials_2.thisIndex,trials_2.ran,RegStandardPitch,RegDeviantPitch,key_resp_6.keys,key_resp_6.rt,RegAudSequence,diff-reg,trials_3.thisRepN,trials_3.thisTrialN,trials_3.thisN,trials_3.thisIndex,trials_3.ran,key_resp_7.keys,key_resp_7.rt,trials_5.thisRepN,trials_5.thisTrialN,trials_5.thisN,trials_5.thisIndex,trials_5.ran,standard,devient,key_resp_8.keys,key_resp_8.rt,trials_4.thisRepN,trials_4.thisTrialN,trials_4.thisN,trials_4.thisIndex,trials_4.ran,key_resp_9.keys,key_resp_9.rt
space,38.9347,space,2.0348,space,1.694,0,0,0,0,1,RegPatterns/01-ms_2_2_4_1_3_unit230.mp3,RegPatterns/01d-ms_2_2_4_3_1_unit230.mp3,train37_audtrain2,2023-11-20_20h34.10.443,AudTraining2,2021.2.3,MacIntel,60.0024001,,,,,,,,,,,,,,,,,,,,,,,,,,,,,,,,,,,,,,
,,,,,,,,,,,,,train37_audtrain2,2023-11-20_20h34.10.443,AudTraining2,2021.2.3,MacIntel,60.0024001,space,13.2337,g,0.6066,0,0,0,0,1,RegPatterns/Noise.mp3,RegPatterns/Noise.mp3,,,,,,,,,,,,,,,,,,,,,,,,,,,
,,,,,,,,,,,,,train37_audtrain2,2023-11-20_20h34.10.443,AudTraining2,2021.2.3,MacIntel,60.0024001,,,,,,,,,,,,space,3.0417,RegPatterns/19d-ms_1_1_2_1_3_2_2_unit230.mp3,1,0,0,0,0,1,,,,,,,,,,,,,,,,,,
,,,,,,,,,,,,,train37_audtrain2,2023-11-20_20h34.10.443,AudTraining2,2021.2.3,MacIntel,60.0024001,,,,,,,,,,,,,,RegPatterns/19-ms_1_1_2_3_1_2_2_unit230.mp3,0,1,0,1,0,1,,,,,,,,,,,,,,,,,,
,,,,,,,,,,,,,train37_audtrain2,2023-11-20_20h34.10.443,AudTraining2,2021.2.3,MacIntel,60.0024001,,,,,,,,,,,,,,RegPatterns/19-ms_1_1_2_3_1_2_2_unit230.mp3,0,2,0,2,0,1,,,,,,,,,,,,,,,,,,
,,,,,,,,,,,,,train37_audtrain2,2023-11-20_20h34.10.443,AudTraining2,2021.2.3,MacIntel,60.0024001,,,,,,,,,,,,,,,,,,,,,2,7.0692,0,0,0,7,1,RegPatterns/19-ms_1_1_2_3_1_2_2_unit230.mp3,RegPatterns/19d-ms_1_1_2_1_3_2_2_unit230.mp3,,,,,,,,,
,,,,,,,,,,,,,train37_audtrain2,2023-11-20_20h34.10.443,AudTraining2,2021.2.3,MacIntel,60.0024001,,,,,,,,,,,,,,RegPatterns/16d-ms_3_1_2_2_3_1_unit230.mp3,1,0,0,0,0,1,,,,,,,,,,,,,,,,,,
,,,,,,,,,,,,,train37_audtrain2,2023-11-20_20h34.10.443,AudTraining2,2021.2.3,MacIntel,60.0024001,,,,,,,,,,,,,,RegPatterns/16-ms_3_1_2_2_1_3_unit230.mp3,0,1,0,1,0,1,,,,,,,,,,,,,,,,,,
,,,,,,,,,,,,,train37_audtrain2,2023-11-20_20h34.10.443,AudTraining2,2021.2.3,MacIntel,60.0024001,,,,,,,,,,,,,,RegPatterns/16-ms_3_1_2_2_1_3_unit230.mp3,0,2,0,2,0,1,,,,,,,,,,,,,,,,,,
,,,,,,,,,,,,,train37_audtrain2,2023-11-20_20h34.10.443,AudTraining2,2021.2.3,MacIntel,60.0024001,,,,,,,,,,,,,,,,,,,,,2,67.6354,0,1,1,5,1,RegPatterns/16-ms_3_1_2_2_1_3_unit230.mp3,RegPatterns/16d-ms_3_1_2_2_3_1_unit230.mp3,,,,,,,,,
,,,,,,,,,,,,,train37_audtrain2,2023-11-20_20h34.10.443,AudTraining2,2021.2.3,MacIntel,60.0024001,,,,,,,,,,,,,,RegPatterns/12d-ms_3_1_3_1_2_2_unit270.mp3,1,0,0,0,0,1,,,,,,,,,,,,,,,,,,
,,,,,,,,,,,,,train37_audtrain2,2023-11-20_20h34.10.443,AudTraining2,2021.2.3,MacIntel,60.0024001,,,,,,,,,,,,,,RegPatterns/12-ms_3_1_1_3_2_2_unit270.mp3,0,1,0,1,0,1,,,,,,,,,,,,,,,,,,
,,,,,,,,,,,,,train37_audtrain2,2023-11-20_20h34.10.443,AudTraining2,2021.2.3,MacIntel,60.0024001,,,,,,,,,,,,,,RegPatterns/12-ms_3_1_1_3_2_2_unit270.mp3,0,2,0,2,0,1,,,,,,,,,,,,,,,,,,
,,,,,,,,,,,,,train37_audtrain2,2023-11-20_20h34.10.443,AudTraining2,2021.2.3,MacIntel,60.0024001,,,,,,,,,,,,,,,,,,,,,1,13.2357,0,2,2,3,1,RegPatterns/12-ms_3_1_1_3_2_2_unit270.mp3,RegPatterns/12d-ms_3_1_3_1_2_2_unit270.mp3,,,,,,,,,
,,,,,,,,,,,,,train37_audtrain2,2023-11-20_20h34.10.443,AudTraining2,2021.2.3,MacIntel,60.0024001,,,,,,,,,,,,,,RegPatterns/30-ms_3_1_2_2_1_1_2_unit230.mp3,0,0,0,0,0,1,,,,,,,,,,,,,,,,,,
,,,,,,,,,,,,,train37_audtrain2,2023-11-20_20h34.10.443,AudTraining2,2021.2.3,MacIntel,60.0024001,,,,,,,,,,,,,,RegPatterns/30d-ms_1_3_2_2_1_1_2_unit230.mp3,2,1,0,1,0,1,,,,,,,,,,,,,,,,,,
,,,,,,,,,,,,,train37_audtrain2,2023-11-20_20h34.10.443,AudTraining2,2021.2.3,MacIntel,60.0024001,,,,,,,,,,,,,,RegPatterns/30-ms_3_1_2_2_1_1_2_unit230.mp3,0,2,0,2,0,1,,,,,,,,,,,,,,,,,,
,,,,,,,,,,,,,train37_audtrain2,2023-11-20_20h34.10.443,AudTraining2,2021.2.3,MacIntel,60.0024001,,,,,,,,,,,,,,,,,,,,,2,0.1888,0,3,3,10,1,RegPatterns/30-ms_3_1_2_2_1_1_2_unit230.mp3,RegPatterns/30d-ms_1_3_2_2_1_1_2_unit230.mp3,,,,,,,,,
,,,,,,,,,,,,,train37_audtrain2,2023-11-20_20h34.10.443,AudTraining2,2021.2.3,MacIntel,60.0024001,,,,,,,,,,,,,,RegPatterns/09-ms_2_1_1_1_3_4_unit270.mp3,0,0,0,0,0,1,,,,,,,,,,,,,,,,,,
,,,,,,,,,,,,,train37_audtrain2,2023-11-20_20h34.10.443,AudTraining2,2021.2.3,MacIntel,60.0024001,,,,,,,,,,,,,,RegPatterns/09d-ms_2_1_1_3_1_4_unit270.mp3,2,1,0,1,0,1,,,,,,,,,,,,,,,,,,
,,,,,,,,,,,,,train37_audtrain2,2023-11-20_20h34.10.443,AudTraining2,2021.2.3,MacIntel,60.0024001,,,,,,,,,,,,,,RegPatterns/09-ms_2_1_1_1_3_4_unit270.mp3,0,2,0,2,0,1,,,,,,,,,,,,,,,,,,
,,,,,,,,,,,,,train37_audtrain2,2023-11-20_20h34.10.443,AudTraining2,2021.2.3,MacIntel,60.0024001,,,,,,,,,,,,,,,,,,,,,2,0.3013,0,4,4,2,1,RegPatterns/09-ms_2_1_1_1_3_4_unit270.mp3,RegPatterns/09d-ms_2_1_1_3_1_4_unit270.mp3,,,,,,,,,
,,,,,,,,,,,,,train37_audtrain2,2023-11-20_20h34.10.443,AudTraining2,2021.2.3,MacIntel,60.0024001,,,,,,,,,,,,,,RegPatterns/14-ms_2_1_1_4_1_3_unit250.mp3,0,0,0,0,0,1,,,,,,,,,,,,,,,,,,
,,,,,,,,,,,,,train37_audtrain2,2023-11-20_20h34.10.443,AudTraining2,2021.2.3,MacIntel,60.0024001,,,,,,,,,,,,,,RegPatterns/14-ms_2_1_1_4_1_3_unit250.mp3,0,1,0,1,0,1,,,,,,,,,,,,,,,,,,
,,,,,,,,,,,,,train37_audtrain2,2023-11-20_20h34.10.443,AudTraining2,2021.2.3,MacIntel,60.0024001,,,,,,,,,,,,,,RegPatterns/14d-ms_2_1_1_4_3_1_unit250.mp3,3,2,0,2,0,1,,,,,,,,,,,,,,,,,,
,,,,,,,,,,,,,train37_audtrain2,2023-11-20_20h34.10.443,AudTraining2,2021.2.3,MacIntel,60.0024001,,,,,,,,,,,,,,,,,,,,,3,17.0683,0,5,5,4,1,RegPatterns/14-ms_2_1_1_4_1_3_unit250.mp3,RegPatterns/14d-ms_2_1_1_4_3_1_unit250.mp3,,,,,,,,,
,,,,,,,,,,,,,train37_audtrain2,2023-11-20_20h34.10.443,AudTraining2,2021.2.3,MacIntel,60.0024001,,,,,,,,,,,,,,RegPatterns/03-ms_3_1_4_2_2_unit270.mp3,0,0,0,0,0,1,,,,,,,,,,,,,,,,,,
,,,,,,,,,,,,,train37_audtrain2,2023-11-20_20h34.10.443,AudTraining2,2021.2.3,MacIntel,60.0024001,,,,,,,,,,,,,,RegPatterns/03d-ms_1_3_4_2_2_unit270.mp3,2,1,0,1,0,1,,,,,,,,,,,,,,,,,,
,,,,,,,,,,,,,train37_audtrain2,2023-11-20_20h34.10.443,AudTraining2,2021.2.3,MacIntel,60.0024001,,,,,,,,,,,,,,RegPatterns/03-ms_3_1_4_2_2_unit270.mp3,0,2,0,2,0,1,,,,,,,,,,,,,,,,,,
,,,,,,,,,,,,,train37_audtrain2,2023-11-20_20h34.10.443,AudTraining2,2021.2.3,MacIntel,60.0024001,,,,,,,,,,,,,,,,,,,,,2,0.8843,0,6,6,1,1,RegPatterns/03-ms_3_1_4_2_2_unit270.mp3,RegPatterns/03d-ms_1_3_4_2_2_unit270.mp3,,,,,,,,,
,,,,,,,,,,,,,train37_audtrain2,2023-11-20_20h34.10.443,AudTraining2,2021.2.3,MacIntel,60.0024001,,,,,,,,,,,,,,RegPatterns/02-ms_3_1_4_1_3_unit250.mp3,0,0,0,0,0,1,,,,,,,,,,,,,,,,,,
,,,,,,,,,,,,,train37_audtrain2,2023-11-20_20h34.10.443,AudTraining2,2021.2.3,MacIntel,60.0024001,,,,,,,,,,,,,,RegPatterns/02-ms_3_1_4_1_3_unit250.mp3,0,1,0,1,0,1,,,,,,,,,,,,,,,,,,
,,,,,,,,,,,,,train37_audtrain2,2023-11-20_20h34.10.443,AudTraining2,2021.2.3,MacIntel,60.0024001,,,,,,,,,,,,,,RegPatterns/02d-ms_3_1_4_3_1_unit250.mp3,3,2,0,2,0,1,,,,,,,,,,,,,,,,,,
,,,,,,,,,,,,,train37_audtrain2,2023-11-20_20h34.10.443,AudTraining2,2021.2.3,MacIntel,60.0024001,,,,,,,,,,,,,,,,,,,,,3,67.5747,0,7,7,0,1,RegPatterns/02-ms_3_1_4_1_3_unit250.mp3,RegPatterns/02d-ms_3_1_4_3_1_unit250.mp3,,,,,,,,,
,,,,,,,,,,,,,train37_audtrain2,2023-11-20_20h34.10.443,AudTraining2,2021.2.3,MacIntel,60.0024001,,,,,,,,,,,,,,RegPatterns/18d-ms_4_2_2_2_1_1_unit270.mp3,1,0,0,0,0,1,,,,,,,,,,,,,,,,,,
,,,,,,,,,,,,,train37_audtrain2,2023-11-20_20h34.10.443,AudTraining2,2021.2.3,MacIntel,60.0024001,,,,,,,,,,,,,,RegPatterns/18-ms_4_2_2_1_1_2_unit270.mp3,0,1,0,1,0,1,,,,,,,,,,,,,,,,,,
,,,,,,,,,,,,,train37_audtrain2,2023-11-20_20h34.10.443,AudTraining2,2021.2.3,MacIntel,60.0024001,,,,,,,,,,,,,,RegPatterns/18-ms_4_2_2_1_1_2_unit270.mp3,0,2,0,2,0,1,,,,,,,,,,,,,,,,,,
,,,,,,,,,,,,,train37_audtrain2,2023-11-20_20h34.10.443,AudTraining2,2021.2.3,MacIntel,60.0024001,,,,,,,,,,,,,,,,,,,,,1,9.9309,0,8,8,6,1,RegPatterns/18-ms_4_2_2_1_1_2_unit270.mp3,RegPatterns/18d-ms_4_2_2_2_1_1_unit270.mp3,,,,,,,,,
,,,,,,,,,,,,,train37_audtrain2,2023-11-20_20h34.10.443,AudTraining2,2021.2.3,MacIntel,60.0024001,,,,,,,,,,,,,,RegPatterns/29-ms_3_1_2_1_1_1_3_unit250.mp3,0,0,0,0,0,1,,,,,,,,,,,,,,,,,,
,,,,,,,,,,,,,train37_audtrain2,2023-11-20_20h34.10.443,AudTraining2,2021.2.3,MacIntel,60.0024001,,,,,,,,,,,,,,RegPatterns/29d-ms_3_1_2_1_1_3_1_unit250.mp3,2,1,0,1,0,1,,,,,,,,,,,,,,,,,,
,,,,,,,,,,,,,train37_audtrain2,2023-11-20_20h34.10.443,AudTraining2,2021.2.3,MacIntel,60.0024001,,,,,,,,,,,,,,RegPatterns/29-ms_3_1_2_1_1_1_3_unit250.mp3,0,2,0,2,0,1,,,,,,,,,,,,,,,,,,
,,,,,,,,,,,,,train37_audtrain2,2023-11-20_20h34.10.443,AudTraining2,2021.2.3,MacIntel,60.0024001,,,,,,,,,,,,,,,,,,,,,2,67.6218,0,9,9,9,1,RegPatterns/29-ms_3_1_2_1_1_1_3_unit250.mp3,RegPatterns/29d-ms_3_1_2_1_1_3_1_unit250.mp3,,,,,,,,,
,,,,,,,,,,,,,train37_audtrain2,2023-11-20_20h34.10.443,AudTraining2,2021.2.3,MacIntel,60.0024001,,,,,,,,,,,,,,RegPatterns/20-ms_2_1_1_2_2_3_1_unit230.mp3,0,0,0,0,0,1,,,,,,,,,,,,,,,,,,
,,,,,,,,,,,,,train37_audtrain2,2023-11-20_20h34.10.443,AudTraining2,2021.2.3,MacIntel,60.0024001,,,,,,,,,,,,,,RegPatterns/20-ms_2_1_1_2_2_3_1_unit230.mp3,0,1,0,1,0,1,,,,,,,,,,,,,,,,,,
,,,,,,,,,,,,,train37_audtrain2,2023-11-20_20h34.10.443,AudTraining2,2021.2.3,MacIntel,60.0024001,,,,,,,,,,,,,,RegPatterns/20d-ms_2_1_1_2_2_1_3_unit230.mp3,3,2,0,2,0,1,,,,,,,,,,,,,,,,,,
,,,,,,,,,,,,,train37_audtrain2,2023-11-20_20h34.10.443,AudTraining2,2021.2.3,MacIntel,60.0024001,,,,,,,,,,,,,,,,,,,,,2,43.5353,0,10,10,11,1,RegPatterns/20-ms_2_1_1_2_2_3_1_unit230.mp3,RegPatterns/20d-ms_2_1_1_2_2_1_3_unit230.mp3,,,,,,,,,
,,,,,,,,,,,,,train37_audtrain2,2023-11-20_20h34.10.443,AudTraining2,2021.2.3,MacIntel,60.0024001,,,,,,,,,,,,,,RegPatterns/26d-ms_1_1_2_1_1_2_4_unit250.mp3,1,0,0,0,0,1,,,,,,,,,,,,,,,,,,
,,,,,,,,,,,,,train37_audtrain2,2023-11-20_20h34.10.443,AudTraining2,2021.2.3,MacIntel,60.0024001,,,,,,,,,,,,,,RegPatterns/26-ms_1_1_2_2_1_1_4_unit250.mp3,0,1,0,1,0,1,,,,,,,,,,,,,,,,,,
,,,,,,,,,,,,,train37_audtrain2,2023-11-20_20h34.10.443,AudTraining2,2021.2.3,MacIntel,60.0024001,,,,,,,,,,,,,,RegPatterns/26-ms_1_1_2_2_1_1_4_unit250.mp3,0,2,0,2,0,1,,,,,,,,,,,,,,,,,,
,,,,,,,,,,,,,train37_audtrain2,2023-11-20_20h34.10.443,AudTraining2,2021.2.3,MacIntel,60.0024001,,,,,,,,,,RegPatterns/Noise.mp3,RegPatterns/Noise.mp3,,,,,,,,,,1,1.3186,,,,,,,,g,7.2872,0,0,0,0,1,,
,,,,,,,,,,,,,train37_audtrain2,2023-11-20_20h34.10.443,AudTraining2,2021.2.3,MacIntel,60.0024001,,,,,,,,,,,,,,,,,,,,,,,0,11,11,8,1,RegPatterns/26-ms_1_1_2_2_1_1_4_unit250.mp3,RegPatterns/26d-ms_1_1_2_1_1_2_4_unit250.mp3,,,,,,,,,
,,,,,,,,,,,,,train37_audtrain2,2023-11-20_20h34.10.443,AudTraining2,2021.2.3,MacIntel,60.0024001,,,,,,,,,,,,,,RegPatterns/29-ms_3_1_2_1_1_1_3_unit250.mp3,0,0,0,0,0,1,,,,,,,,,,,,,,,,,,
,,,,,,,,,,,,,train37_audtrain2,2023-11-20_20h34.10.443,AudTraining2,2021.2.3,MacIntel,60.0024001,,,,,,,,,,,,,,RegPatterns/29-ms_3_1_2_1_1_1_3_unit250.mp3,0,1,0,1,0,1,,,,,,,,,,,,,,,,,,
,,,,,,,,,,,,,train37_audtrain2,2023-11-20_20h34.10.443,AudTraining2,2021.2.3,MacIntel,60.0024001,,,,,,,,,,,,,,RegPatterns/29d-ms_3_1_2_1_1_3_1_unit250.mp3,3,2,0,2,0,1,,,,,,,,,,,,,,,,,,
,,,,,,,,,,,,,train37_audtrain2,2023-11-20_20h34.10.443,AudTraining2,2021.2.3,MacIntel,60.0024001,,,,,,,,,,,,,,,,,,,,,3,82.4717,1,0,12,9,1,RegPatterns/29-ms_3_1_2_1_1_1_3_unit250.mp3,RegPatterns/29d-ms_3_1_2_1_1_3_1_unit250.mp3,,,,,,,,,
,,,,,,,,,,,,,train37_audtrain2,2023-11-20_20h34.10.443,AudTraining2,2021.2.3,MacIntel,60.0024001,,,,,,,,,,,,,,RegPatterns/12-ms_3_1_1_3_2_2_unit270.mp3,0,0,0,0,0,1,,,,,,,,,,,,,,,,,,
,,,,,,,,,,,,,train37_audtrain2,2023-11-20_20h34.10.443,AudTraining2,2021.2.3,MacIntel,60.0024001,,,,,,,,,,,,,,RegPatterns/12d-ms_3_1_3_1_2_2_unit270.mp3,2,1,0,1,0,1,,,,,,,,,,,,,,,,,,
,,,,,,,,,,,,,train37_audtrain2,2023-11-20_20h34.10.443,AudTraining2,2021.2.3,MacIntel,60.0024001,,,,,,,,,,,,,,RegPatterns/12-ms_3_1_1_3_2_2_unit270.mp3,0,2,0,2,0,1,,,,,,,,,,,,,,,,,,
,,,,,,,,,,,,,train37_audtrain2,2023-11-20_20h34.10.443,AudTraining2,2021.2.3,MacIntel,60.0024001,,,,,,,,,,,,,,,,,,,,,2,0.9851,1,1,13,3,1,RegPatterns/12-ms_3_1_1_3_2_2_unit270.mp3,RegPatterns/12d-ms_3_1_3_1_2_2_unit270.mp3,,,,,,,,,
,,,,,,,,,,,,,train37_audtrain2,2023-11-20_20h34.10.443,AudTraining2,2021.2.3,MacIntel,60.0024001,,,,,,,,,,,,,,RegPatterns/16-ms_3_1_2_2_1_3_unit230.mp3,0,0,0,0,0,1,,,,,,,,,,,,,,,,,,
,,,,,,,,,,,,,train37_audtrain2,2023-11-20_20h34.10.443,AudTraining2,2021.2.3,MacIntel,60.0024001,,,,,,,,,,,,,,RegPatterns/16-ms_3_1_2_2_1_3_unit230.mp3,0,1,0,1,0,1,,,,,,,,,,,,,,,,,,
,,,,,,,,,,,,,train37_audtrain2,2023-11-20_20h34.10.443,AudTraining2,2021.2.3,MacIntel,60.0024001,,,,,,,,,,,,,,RegPatterns/16d-ms_3_1_2_2_3_1_unit230.mp3,3,2,0,2,0,1,,,,,,,,,,,,,,,,,,
,,,,,,,,,,,,,train37_audtrain2,2023-11-20_20h34.10.443,AudTraining2,2021.2.3,MacIntel,60.0024001,,,,,,,,,,,,,,,,,,,,,3,2.7841,1,2,14,5,1,RegPatterns/16-ms_3_1_2_2_1_3_unit230.mp3,RegPatterns/16d-ms_3_1_2_2_3_1_unit230.mp3,,,,,,,,,
,,,,,,,,,,,,,train37_audtrain2,2023-11-20_20h34.10.443,AudTraining2,2021.2.3,MacIntel,60.0024001,,,,,,,,,,,,,,RegPatterns/02d-ms_3_1_4_3_1_unit250.mp3,1,0,0,0,0,1,,,,,,,,,,,,,,,,,,
,,,,,,,,,,,,,train37_audtrain2,2023-11-20_20h34.10.443,AudTraining2,2021.2.3,MacIntel,60.0024001,,,,,,,,,,,,,,RegPatterns/02-ms_3_1_4_1_3_unit250.mp3,0,1,0,1,0,1,,,,,,,,,,,,,,,,,,
,,,,,,,,,,,,,train37_audtrain2,2023-11-20_20h34.10.443,AudTraining2,2021.2.3,MacIntel,60.0024001,,,,,,,,,,,,,,RegPatterns/02-ms_3_1_4_1_3_unit250.mp3,0,2,0,2,0,1,,,,,,,,,,,,,,,,,,
,,,,,,,,,,,,,train37_audtrain2,2023-11-20_20h34.10.443,AudTraining2,2021.2.3,MacIntel,60.0024001,,,,,,,,,,,,,,,,,,,,,1,1.5834,1,3,15,0,1,RegPatterns/02-ms_3_1_4_1_3_unit250.mp3,RegPatterns/02d-ms_3_1_4_3_1_unit250.mp3,,,,,,,,,
,,,,,,,,,,,,,train37_audtrain2,2023-11-20_20h34.10.443,AudTraining2,2021.2.3,MacIntel,60.0024001,,,,,,,,,,,,,,RegPatterns/03-ms_3_1_4_2_2_unit270.mp3,0,0,0,0,0,1,,,,,,,,,,,,,,,,,,
,,,,,,,,,,,,,train37_audtrain2,2023-11-20_20h34.10.443,AudTraining2,2021.2.3,MacIntel,60.0024001,,,,,,,,,,,,,,RegPatterns/03-ms_3_1_4_2_2_unit270.mp3,0,1,0,1,0,1,,,,,,,,,,,,,,,,,,
,,,,,,,,,,,,,train37_audtrain2,2023-11-20_20h34.10.443,AudTraining2,2021.2.3,MacIntel,60.0024001,,,,,,,,,,,,,,RegPatterns/03d-ms_1_3_4_2_2_unit270.mp3,3,2,0,2,0,1,,,,,,,,,,,,,,,,,,
,,,,,,,,,,,,,train37_audtrain2,2023-11-20_20h34.10.443,AudTraining2,2021.2.3,MacIntel,60.0024001,,,,,,,,,,,,,,,,,,,,,2,20.5003,1,4,16,1,1,RegPatterns/03-ms_3_1_4_2_2_unit270.mp3,RegPatterns/03d-ms_1_3_4_2_2_unit270.mp3,,,,,,,,,
,,,,,,,,,,,,,train37_audtrain2,2023-11-20_20h34.10.443,AudTraining2,2021.2.3,MacIntel,60.0024001,,,,,,,,,,,,,,RegPatterns/20-ms_2_1_1_2_2_3_1_unit230.mp3,0,0,0,0,0,1,,,,,,,,,,,,,,,,,,
,,,,,,,,,,,,,train37_audtrain2,2023-11-20_20h34.10.443,AudTraining2,2021.2.3,MacIntel,60.0024001,,,,,,,,,,,,,,RegPatterns/20d-ms_2_1_1_2_2_1_3_unit230.mp3,2,1,0,1,0,1,,,,,,,,,,,,,,,,,,
,,,,,,,,,,,,,train37_audtrain2,2023-11-20_20h34.10.443,AudTraining2,2021.2.3,MacIntel,60.0024001,,,,,,,,,,,,,,RegPatterns/20-ms_2_1_1_2_2_3_1_unit230.mp3,0,2,0,2,0,1,,,,,,,,,,,,,,,,,,
,,,,,,,,,,,,,train37_audtrain2,2023-11-20_20h34.10.443,AudTraining2,2021.2.3,MacIntel,60.0024001,,,,,,,,,,,,,,,,,,,,,2,0.3931,1,5,17,11,1,RegPatterns/20-ms_2_1_1_2_2_3_1_unit230.mp3,RegPatterns/20d-ms_2_1_1_2_2_1_3_unit230.mp3,,,,,,,,,
,,,,,,,,,,,,,train37_audtrain2,2023-11-20_20h34.10.443,AudTraining2,2021.2.3,MacIntel,60.0024001,,,,,,,,,,,,,,RegPatterns/19-ms_1_1_2_3_1_2_2_unit230.mp3,0,0,0,0,0,1,,,,,,,,,,,,,,,,,,
,,,,,,,,,,,,,train37_audtrain2,2023-11-20_20h34.10.443,AudTraining2,2021.2.3,MacIntel,60.0024001,,,,,,,,,,,,,,RegPatterns/19-ms_1_1_2_3_1_2_2_unit230.mp3,0,1,0,1,0,1,,,,,,,,,,,,,,,,,,
,,,,,,,,,,,,,train37_audtrain2,2023-11-20_20h34.10.443,AudTraining2,2021.2.3,MacIntel,60.0024001,,,,,,,,,,,,,,RegPatterns/19d-ms_1_1_2_1_3_2_2_unit230.mp3,3,2,0,2,0,1,,,,,,,,,,,,,,,,,,
,,,,,,,,,,,,,train37_audtrain2,2023-11-20_20h34.10.443,AudTraining2,2021.2.3,MacIntel,60.0024001,,,,,,,,,,,,,,,,,,,,,3,1.8838,1,6,18,7,1,RegPatterns/19-ms_1_1_2_3_1_2_2_unit230.mp3,RegPatterns/19d-ms_1_1_2_1_3_2_2_unit230.mp3,,,,,,,,,
,,,,,,,,,,,,,train37_audtrain2,2023-11-20_20h34.10.443,AudTraining2,2021.2.3,MacIntel,60.0024001,,,,,,,,,,,,,,RegPatterns/30-ms_3_1_2_2_1_1_2_unit230.mp3,0,0,0,0,0,1,,,,,,,,,,,,,,,,,,
,,,,,,,,,,,,,train37_audtrain2,2023-11-20_20h34.10.443,AudTraining2,2021.2.3,MacIntel,60.0024001,,,,,,,,,,,,,,RegPatterns/30-ms_3_1_2_2_1_1_2_unit230.mp3,0,1,0,1,0,1,,,,,,,,,,,,,,,,,,
,,,,,,,,,,,,,train37_audtrain2,2023-11-20_20h34.10.443,AudTraining2,2021.2.3,MacIntel,60.0024001,,,,,,,,,,,,,,RegPatterns/30d-ms_1_3_2_2_1_1_2_unit230.mp3,3,2,0,2,0,1,,,,,,,,,,,,,,,,,,
,,,,,,,,,,,,,train37_audtrain2,2023-11-20_20h34.10.443,AudTraining2,2021.2.3,MacIntel,60.0024001,,,,,,,,,,,,,,,,,,,,,3,10.2505,1,7,19,10,1,RegPatterns/30-ms_3_1_2_2_1_1_2_unit230.mp3,RegPatterns/30d-ms_1_3_2_2_1_1_2_unit230.mp3,,,,,,,,,
,,,,,,,,,,,,,train37_audtrain2,2023-11-20_20h34.10.443,AudTraining2,2021.2.3,MacIntel,60.0024001,,,,,,,,,,,,,,RegPatterns/18-ms_4_2_2_1_1_2_unit270.mp3,0,0,0,0,0,1,,,,,,,,,,,,,,,,,,
,,,,,,,,,,,,,train37_audtrain2,2023-11-20_20h34.10.443,AudTraining2,2021.2.3,MacIntel,60.0024001,,,,,,,,,,,,,,RegPatterns/18-ms_4_2_2_1_1_2_unit270.mp3,0,1,0,1,0,1,,,,,,,,,,,,,,,,,,
,,,,,,,,,,,,,train37_audtrain2,2023-11-20_20h34.10.443,AudTraining2,2021.2.3,MacIntel,60.0024001,,,,,,,,,,,,,,RegPatterns/18d-ms_4_2_2_2_1_1_unit270.mp3,3,2,0,2,0,1,,,,,,,,,,,,,,,,,,
,,,,,,,,,,,,,train37_audtrain2,2023-11-20_20h34.10.443,AudTraining2,2021.2.3,MacIntel,60.0024001,,,,,,,,,,,,,,,,,,,,,3,2.5059,1,8,20,6,1,RegPatterns/18-ms_4_2_2_1_1_2_unit270.mp3,RegPatterns/18d-ms_4_2_2_2_1_1_unit270.mp3,,,,,,,,,
,,,,,,,,,,,,,train37_audtrain2,2023-11-20_20h34.10.443,AudTraining2,2021.2.3,MacIntel,60.0024001,,,,,,,,,,,,,,RegPatterns/09-ms_2_1_1_1_3_4_unit270.mp3,0,0,0,0,0,1,,,,,,,,,,,,,,,,,,
,,,,,,,,,,,,,train37_audtrain2,2023-11-20_20h34.10.443,AudTraining2,2021.2.3,MacIntel,60.0024001,,,,,,,,,,,,,,RegPatterns/09-ms_2_1_1_1_3_4_unit270.mp3,0,1,0,1,0,1,,,,,,,,,,,,,,,,,,
,,,,,,,,,,,,,train37_audtrain2,2023-11-20_20h34.10.443,AudTraining2,2021.2.3,MacIntel,60.0024001,,,,,,,,,,,,,,RegPatterns/09d-ms_2_1_1_3_1_4_unit270.mp3,3,2,0,2,0,1,,,,,,,,,,,,,,,,,,
,,,,,,,,,,,,,train37_audtrain2,2023-11-20_20h34.10.443,AudTraining2,2021.2.3,MacIntel,60.0024001,,,,,,,,,,,,,,,,,,,,,2,23.6098,1,9,21,2,1,RegPatterns/09-ms_2_1_1_1_3_4_unit270.mp3,RegPatterns/09d-ms_2_1_1_3_1_4_unit270.mp3,,,,,,,,,
,,,,,,,,,,,,,train37_audtrain2,2023-11-20_20h34.10.443,AudTraining2,2021.2.3,MacIntel,60.0024001,,,,,,,,,,,,,,RegPatterns/14d-ms_2_1_1_4_3_1_unit250.mp3,1,0,0,0,0,1,,,,,,,,,,,,,,,,,,
,,,,,,,,,,,,,train37_audtrain2,2023-11-20_20h34.10.443,AudTraining2,2021.2.3,MacIntel,60.0024001,,,,,,,,,,,,,,RegPatterns/14-ms_2_1_1_4_1_3_unit250.mp3,0,1,0,1,0,1,,,,,,,,,,,,,,,,,,
,,,,,,,,,,,,,train37_audtrain2,2023-11-20_20h34.10.443,AudTraining2,2021.2.3,MacIntel,60.0024001,,,,,,,,,,,,,,RegPatterns/14-ms_2_1_1_4_1_3_unit250.mp3,0,2,0,2,0,1,,,,,,,,,,,,,,,,,,
,,,,,,,,,,,,,train37_audtrain2,2023-11-20_20h34.10.443,AudTraining2,2021.2.3,MacIntel,60.0024001,,,,,,,,,,,,,,,,,,,,,1,0.5211,1,10,22,4,1,RegPatterns/14-ms_2_1_1_4_1_3_unit250.mp3,RegPatterns/14d-ms_2_1_1_4_3_1_unit250.mp3,,,,,,,,,
,,,,,,,,,,,,,train37_audtrain2,2023-11-20_20h34.10.443,AudTraining2,2021.2.3,MacIntel,60.0024001,,,,,,,,,,,,,,RegPatterns/26-ms_1_1_2_2_1_1_4_unit250.mp3,0,0,0,0,0,1,,,,,,,,,,,,,,,,,,
,,,,,,,,,,,,,train37_audtrain2,2023-11-20_20h34.10.443,AudTraining2,2021.2.3,MacIntel,60.0024001,,,,,,,,,,,,,,RegPatterns/26d-ms_1_1_2_1_1_2_4_unit250.mp3,2,1,0,1,0,1,,,,,,,,,,,,,,,,,,
,,,,,,,,,,,,,train37_audtrain2,2023-11-20_20h34.10.443,AudTraining2,2021.2.3,MacIntel,60.0024001,,,,,,,,,,,,,,RegPatterns/26-ms_1_1_2_2_1_1_4_unit250.mp3,0,2,0,2,0,1,,,,,,,,,,,,,,,,,,
,,,,,,,,,,,,,train37_audtrain2,2023-11-20_20h34.10.443,AudTraining2,2021.2.3,MacIntel,60.0024001,,,,,,,,,,,,,,,,,,,,,2,2.0717,1,11,23,8,1,RegPatterns/26-ms_1_1_2_2_1_1_4_unit250.mp3,RegPatterns/26d-ms_1_1_2_1_1_2_4_unit250.mp3,,,,,,,,,
,,,,,,,,,,,,,train37_audtrain2,2023-11-20_20h34.10.443,AudTraining2,2021.2.3,MacIntel,60.0024001,,,,,,,,,,,,,,RegPatterns/29d-ms_3_1_2_1_1_3_1_unit250.mp3,1,0,0,0,0,1,,,,,,,,,,,,,,,,,,
,,,,,,,,,,,,,train37_audtrain2,2023-11-20_20h34.10.443,AudTraining2,2021.2.3,MacIntel,60.0024001,,,,,,,,,,,,,,RegPatterns/29-ms_3_1_2_1_1_1_3_unit250.mp3,0,1,0,1,0,1,,,,,,,,,,,,,,,,,,
,,,,,,,,,,,,,train37_audtrain2,2023-11-20_20h34.10.443,AudTraining2,2021.2.3,MacIntel,60.0024001,,,,,,,,,,,,,,RegPatterns/29-ms_3_1_2_1_1_1_3_unit250.mp3,0,2,0,2,0,1,,,,,,,,,,,,,,,,,,
,,,,,,,,,,,,,train37_audtrain2,2023-11-20_20h34.10.443,AudTraining2,2021.2.3,MacIntel,60.0024001,,,,,,,,,,,,,,,,,,,,,1,0.7225,2,0,24,9,1,RegPatterns/29-ms_3_1_2_1_1_1_3_unit250.mp3,RegPatterns/29d-ms_3_1_2_1_1_3_1_unit250.mp3,,,,,,,,,
,,,,,,,,,,,,,train37_audtrain2,2023-11-20_20h34.10.443,AudTraining2,2021.2.3,MacIntel,60.0024001,,,,,,,,,,,,,,RegPatterns/26-ms_1_1_2_2_1_1_4_unit250.mp3,0,0,0,0,0,1,,,,,,,,,,,,,,,,,,
,,,,,,,,,,,,,train37_audtrain2,2023-11-20_20h34.10.443,AudTraining2,2021.2.3,MacIntel,60.0024001,,,,,,,,,,,,,,RegPatterns/26-ms_1_1_2_2_1_1_4_unit250.mp3,0,1,0,1,0,1,,,,,,,,,,,,,,,,,,
,,,,,,,,,,,,,train37_audtrain2,2023-11-20_20h34.10.443,AudTraining2,2021.2.3,MacIntel,60.0024001,,,,,,,,,,,,,,RegPatterns/26d-ms_1_1_2_1_1_2_4_unit250.mp3,3,2,0,2,0,1,,,,,,,,,,,,,,,,,,
,,,,,,,,,,,,,train37_audtrain2,2023-11-20_20h34.10.443,AudTraining2,2021.2.3,MacIntel,60.0024001,,,,,,,,,,RegPatterns/Noise.mp3,RegPatterns/Noise.mp3,,,,,,,,,,3,1.0901,,,,,,,,2,80.2673,0,0,0,0,1,,
,,,,,,,,,,,,,train37_audtrain2,2023-11-20_20h34.10.443,AudTraining2,2021.2.3,MacIntel,60.0024001,,,,,,,,,,,,,,,,,,,,,,,2,1,25,8,1,RegPatterns/26-ms_1_1_2_2_1_1_4_unit250.mp3,RegPatterns/26d-ms_1_1_2_1_1_2_4_unit250.mp3,,,,,,,,,
,,,,,,,,,,,,,train37_audtrain2,2023-11-20_20h34.10.443,AudTraining2,2021.2.3,MacIntel,60.0024001,,,,,,,,,,,,,,RegPatterns/16-ms_3_1_2_2_1_3_unit230.mp3,0,0,0,0,0,1,,,,,,,,,,,,,,,,,,
,,,,,,,,,,,,,train37_audtrain2,2023-11-20_20h34.10.443,AudTraining2,2021.2.3,MacIntel,60.0024001,,,,,,,,,,,,,,RegPatterns/16d-ms_3_1_2_2_3_1_unit230.mp3,2,1,0,1,0,1,,,,,,,,,,,,,,,,,,
,,,,,,,,,,,,,train37_audtrain2,2023-11-20_20h34.10.443,AudTraining2,2021.2.3,MacIntel,60.0024001,,,,,,,,,,,,,,RegPatterns/16-ms_3_1_2_2_1_3_unit230.mp3,0,2,0,2,0,1,,,,,,,,,,,,,,,,,,
,,,,,,,,,,,,,train37_audtrain2,2023-11-20_20h34.10.443,AudTraining2,2021.2.3,MacIntel,60.0024001,,,,,,,,,,,,,,,,,,,,,1,4.5784,2,2,26,5,1,RegPatterns/16-ms_3_1_2_2_1_3_unit230.mp3,RegPatterns/16d-ms_3_1_2_2_3_1_unit230.mp3,,,,,,,,,
,,,,,,,,,,,,,train37_audtrain2,2023-11-20_20h34.10.443,AudTraining2,2021.2.3,MacIntel,60.0024001,,,,,,,,,,,,,,RegPatterns/12-ms_3_1_1_3_2_2_unit270.mp3,0,0,0,0,0,1,,,,,,,,,,,,,,,,,,
,,,,,,,,,,,,,train37_audtrain2,2023-11-20_20h34.10.443,AudTraining2,2021.2.3,MacIntel,60.0024001,,,,,,,,,,,,,,RegPatterns/12-ms_3_1_1_3_2_2_unit270.mp3,0,1,0,1,0,1,,,,,,,,,,,,,,,,,,
,,,,,,,,,,,,,train37_audtrain2,2023-11-20_20h34.10.443,AudTraining2,2021.2.3,MacIntel,60.0024001,,,,,,,,,,,,,,RegPatterns/12d-ms_3_1_3_1_2_2_unit270.mp3,3,2,0,2,0,1,,,,,,,,,,,,,,,,,,
,,,,,,,,,,,,,train37_audtrain2,2023-11-20_20h34.10.443,AudTraining2,2021.2.3,MacIntel,60.0024001,,,,,,,,,,,,,,,,,,,,,2,0.8576,2,3,27,3,1,RegPatterns/12-ms_3_1_1_3_2_2_unit270.mp3,RegPatterns/12d-ms_3_1_3_1_2_2_unit270.mp3,,,,,,,,,
,,,,,,,,,,,,,train37_audtrain2,2023-11-20_20h34.10.443,AudTraining2,2021.2.3,MacIntel,60.0024001,,,,,,,,,,,,,,RegPatterns/20d-ms_2_1_1_2_2_1_3_unit230.mp3,1,0,0,0,0,1,,,,,,,,,,,,,,,,,,
,,,,,,,,,,,,,train37_audtrain2,2023-11-20_20h34.10.443,AudTraining2,2021.2.3,MacIntel,60.0024001,,,,,,,,,,,,,,RegPatterns/20-ms_2_1_1_2_2_3_1_unit230.mp3,0,1,0,1,0,1,,,,,,,,,,,,,,,,,,
,,,,,,,,,,,,,train37_audtrain2,2023-11-20_20h34.10.443,AudTraining2,2021.2.3,MacIntel,60.0024001,,,,,,,,,,,,,,RegPatterns/20-ms_2_1_1_2_2_3_1_unit230.mp3,0,2,0,2,0,1,,,,,,,,,,,,,,,,,,
,,,,,,,,,,,,,train37_audtrain2,2023-11-20_20h34.10.443,AudTraining2,2021.2.3,MacIntel,60.0024001,,,,,,,,,,,,,,,,,,,,,3,0.2376,2,4,28,11,1,RegPatterns/20-ms_2_1_1_2_2_3_1_unit230.mp3,RegPatterns/20d-ms_2_1_1_2_2_1_3_unit230.mp3,,,,,,,,,
,,,,,,,,,,,,,train37_audtrain2,2023-11-20_20h34.10.443,AudTraining2,2021.2.3,MacIntel,60.0024001,,,,,,,,,,,,,,RegPatterns/18-ms_4_2_2_1_1_2_unit270.mp3,0,0,0,0,0,1,,,,,,,,,,,,,,,,,,
,,,,,,,,,,,,,train37_audtrain2,2023-11-20_20h34.10.443,AudTraining2,2021.2.3,MacIntel,60.0024001,,,,,,,,,,,,,,RegPatterns/18d-ms_4_2_2_2_1_1_unit270.mp3,2,1,0,1,0,1,,,,,,,,,,,,,,,,,,
,,,,,,,,,,,,,train37_audtrain2,2023-11-20_20h34.10.443,AudTraining2,2021.2.3,MacIntel,60.0024001,,,,,,,,,,,,,,RegPatterns/18-ms_4_2_2_1_1_2_unit270.mp3,0,2,0,2,0,1,,,,,,,,,,,,,,,,,,
,,,,,,,,,,,,,train37_audtrain2,2023-11-20_20h34.10.443,AudTraining2,2021.2.3,MacIntel,60.0024001,,,,,,,,,,,,,,,,,,,,,2,0.4018,2,5,29,6,1,RegPatterns/18-ms_4_2_2_1_1_2_unit270.mp3,RegPatterns/18d-ms_4_2_2_2_1_1_unit270.mp3,,,,,,,,,
,,,,,,,,,,,,,train37_audtrain2,2023-11-20_20h34.10.443,AudTraining2,2021.2.3,MacIntel,60.0024001,,,,,,,,,,,,,,RegPatterns/03d-ms_1_3_4_2_2_unit270.mp3,1,0,0,0,0,1,,,,,,,,,,,,,,,,,,
,,,,,,,,,,,,,train37_audtrain2,2023-11-20_20h34.10.443,AudTraining2,2021.2.3,MacIntel,60.0024001,,,,,,,,,,,,,,RegPatterns/03-ms_3_1_4_2_2_unit270.mp3,0,1,0,1,0,1,,,,,,,,,,,,,,,,,,
,,,,,,,,,,,,,train37_audtrain2,2023-11-20_20h34.10.443,AudTraining2,2021.2.3,MacIntel,60.0024001,,,,,,,,,,,,,,RegPatterns/03-ms_3_1_4_2_2_unit270.mp3,0,2,0,2,0,1,,,,,,,,,,,,,,,,,,
,,,,,,,,,,,,,train37_audtrain2,2023-11-20_20h34.10.443,AudTraining2,2021.2.3,MacIntel,60.0024001,,,,,,,,,,,,,,,,,,,,,2,0.4587,2,6,30,1,1,RegPatterns/03-ms_3_1_4_2_2_unit270.mp3,RegPatterns/03d-ms_1_3_4_2_2_unit270.mp3,,,,,,,,,
,,,,,,,,,,,,,train37_audtrain2,2023-11-20_20h34.10.443,AudTraining2,2021.2.3,MacIntel,60.0024001,,,,,,,,,,,,,,RegPatterns/02-ms_3_1_4_1_3_unit250.mp3,0,0,0,0,0,1,,,,,,,,,,,,,,,,,,
,,,,,,,,,,,,,train37_audtrain2,2023-11-20_20h34.10.443,AudTraining2,2021.2.3,MacIntel,60.0024001,,,,,,,,,,,,,,RegPatterns/02d-ms_3_1_4_3_1_unit250.mp3,2,1,0,1,0,1,,,,,,,,,,,,,,,,,,
,,,,,,,,,,,,,train37_audtrain2,2023-11-20_20h34.10.443,AudTraining2,2021.2.3,MacIntel,60.0024001,,,,,,,,,,,,,,RegPatterns/02-ms_3_1_4_1_3_unit250.mp3,0,2,0,2,0,1,,,,,,,,,,,,,,,,,,
,,,,,,,,,,,,,train37_audtrain2,2023-11-20_20h34.10.443,AudTraining2,2021.2.3,MacIntel,60.0024001,,,,,,,,,,,,,,,,,,,,,2,0.068,2,7,31,0,1,RegPatterns/02-ms_3_1_4_1_3_unit250.mp3,RegPatterns/02d-ms_3_1_4_3_1_unit250.mp3,,,,,,,,,
,,,,,,,,,,,,,train37_audtrain2,2023-11-20_20h34.10.443,AudTraining2,2021.2.3,MacIntel,60.0024001,,,,,,,,,,,,,,RegPatterns/19-ms_1_1_2_3_1_2_2_unit230.mp3,0,0,0,0,0,1,,,,,,,,,,,,,,,,,,
,,,,,,,,,,,,,train37_audtrain2,2023-11-20_20h34.10.443,AudTraining2,2021.2.3,MacIntel,60.0024001,,,,,,,,,,,,,,RegPatterns/19d-ms_1_1_2_1_3_2_2_unit230.mp3,2,1,0,1,0,1,,,,,,,,,,,,,,,,,,
,,,,,,,,,,,,,train37_audtrain2,2023-11-20_20h34.10.443,AudTraining2,2021.2.3,MacIntel,60.0024001,,,,,,,,,,,,,,RegPatterns/19-ms_1_1_2_3_1_2_2_unit230.mp3,0,2,0,2,0,1,,,,,,,,,,,,,,,,,,
,,,,,,,,,,,,,train37_audtrain2,2023-11-20_20h34.10.443,AudTraining2,2021.2.3,MacIntel,60.0024001,,,,,,,,,,,,,,,,,,,,,1,1.9117,2,8,32,7,1,RegPatterns/19-ms_1_1_2_3_1_2_2_unit230.mp3,RegPatterns/19d-ms_1_1_2_1_3_2_2_unit230.mp3,,,,,,,,,
,,,,,,,,,,,,,train37_audtrain2,2023-11-20_20h34.10.443,AudTraining2,2021.2.3,MacIntel,60.0024001,,,,,,,,,,,,,,RegPatterns/09d-ms_2_1_1_3_1_4_unit270.mp3,1,0,0,0,0,1,,,,,,,,,,,,,,,,,,
,,,,,,,,,,,,,train37_audtrain2,2023-11-20_20h34.10.443,AudTraining2,2021.2.3,MacIntel,60.0024001,,,,,,,,,,,,,,RegPatterns/09-ms_2_1_1_1_3_4_unit270.mp3,0,1,0,1,0,1,,,,,,,,,,,,,,,,,,
,,,,,,,,,,,,,train37_audtrain2,2023-11-20_20h34.10.443,AudTraining2,2021.2.3,MacIntel,60.0024001,,,,,,,,,,,,,,RegPatterns/09-ms_2_1_1_1_3_4_unit270.mp3,0,2,0,2,0,1,,,,,,,,,,,,,,,,,,
,,,,,,,,,,,,,train37_audtrain2,2023-11-20_20h34.10.443,AudTraining2,2021.2.3,MacIntel,60.0024001,,,,,,,,,,,,,,,,,,,,,2,0.5905,2,9,33,2,1,RegPatterns/09-ms_2_1_1_1_3_4_unit270.mp3,RegPatterns/09d-ms_2_1_1_3_1_4_unit270.mp3,,,,,,,,,
,,,,,,,,,,,,,train37_audtrain2,2023-11-20_20h34.10.443,AudTraining2,2021.2.3,MacIntel,60.0024001,,,,,,,,,,,,,,RegPatterns/30d-ms_1_3_2_2_1_1_2_unit230.mp3,1,0,0,0,0,1,,,,,,,,,,,,,,,,,,
,,,,,,,,,,,,,train37_audtrain2,2023-11-20_20h34.10.443,AudTraining2,2021.2.3,MacIntel,60.0024001,,,,,,,,,,,,,,RegPatterns/30-ms_3_1_2_2_1_1_2_unit230.mp3,0,1,0,1,0,1,,,,,,,,,,,,,,,,,,
,,,,,,,,,,,,,train37_audtrain2,2023-11-20_20h34.10.443,AudTraining2,2021.2.3,MacIntel,60.0024001,,,,,,,,,,,,,,RegPatterns/30-ms_3_1_2_2_1_1_2_unit230.mp3,0,2,0,2,0,1,,,,,,,,,,,,,,,,,,
,,,,,,,,,,,,,train37_audtrain2,2023-11-20_20h34.10.443,AudTraining2,2021.2.3,MacIntel,60.0024001,,,,,,,,,,,,,,,,,,,,,1,1.4539,2,10,34,10,1,RegPatterns/30-ms_3_1_2_2_1_1_2_unit230.mp3,RegPatterns/30d-ms_1_3_2_2_1_1_2_unit230.mp3,,,,,,,,,
,,,,,,,,,,,,,train37_audtrain2,2023-11-20_20h34.10.443,AudTraining2,2021.2.3,MacIntel,60.0024001,,,,,,,,,,,,,,RegPatterns/14-ms_2_1_1_4_1_3_unit250.mp3,0,0,0,0,0,1,,,,,,,,,,,,,,,,,,
,,,,,,,,,,,,,train37_audtrain2,2023-11-20_20h34.10.443,AudTraining2,2021.2.3,MacIntel,60.0024001,,,,,,,,,,,,,,RegPatterns/14d-ms_2_1_1_4_3_1_unit250.mp3,2,1,0,1,0,1,,,,,,,,,,,,,,,,,,
,,,,,,,,,,,,,train37_audtrain2,2023-11-20_20h34.10.443,AudTraining2,2021.2.3,MacIntel,60.0024001,,,,,,,,,,,,,,RegPatterns/14-ms_2_1_1_4_1_3_unit250.mp3,0,2,0,2,0,1,,,,,,,,,,,,,,,,,,
,,,,,,,,,,,,,train37_audtrain2,2023-11-20_20h34.10.443,AudTraining2,2021.2.3,MacIntel,60.0024001,,,,,,,,,,,,,,,,,,,,,3,2.8658,2,11,35,4,1,RegPatterns/14-ms_2_1_1_4_1_3_unit250.mp3,RegPatterns/14d-ms_2_1_1_4_3_1_unit250.mp3,,,,,,,,,
,,,,,,,,,,,,,train37_audtrain2,2023-11-20_20h34.10.443,AudTraining2,2021.2.3,MacIntel,60.0024001,,,,,,,,,,,,,,,,,,,,,,,,,,,,,,,,,,,,,space,1.9762
