key_resp.keys,key_resp.rt,key_resp_8.keys,key_resp_8.rt,key_resp_9.keys,key_resp_9.rt,trials.thisRepN,trials.thisTrialN,trials.thisN,trials.thisIndex,trials.ran,volstandard,voldeviant,participant,date,expName,psychopyVersion,OS,frameRate,key_resp_2.keys,key_resp_2.rt,key_resp_4.keys,key_resp_4.rt,trials_5.thisRepN,trials_5.thisTrialN,trials_5.thisN,trials_5.thisIndex,trials_5.ran,RegStandardPitch,RegDeviantPitch,key_resp_5.keys,key_resp_5.rt,RegAudSequence,diff-reg,trials_2.thisRepN,trials_2.thisTrialN,trials_2.thisN,trials_2.thisIndex,trials_2.ran,key_resp_7.keys,key_resp_7.rt,trials_3.thisRepN,trials_3.thisTrialN,trials_3.thisN,trials_3.thisIndex,trials_3.ran,standard,devient,key_resp_6.keys,key_resp_6.rt,trials_4.thisRepN,trials_4.thisTrialN,trials_4.thisN,trials_4.thisIndex,trials_4.ran,key_resp_10.keys,key_resp_10.rt
space,10.2645,space,6.9703,space,7.5434,0,0,0,0,1,RegPatterns/01-ms_2_2_4_1_3_unit230.mp3,RegPatterns/01d-ms_2_2_4_3_1_unit230.mp3,train23_audtrian1,2023-11-15_15h51.58.284,AudTraining1,2021.2.3,Win32,59.90176111,,,,,,,,,,,,,,,,,,,,,,,,,,,,,,,,,,,,,,
,,,,,,,,,,,,,train23_audtrian1,2023-11-15_15h51.58.284,AudTraining1,2021.2.3,Win32,59.90176111,space,3.2757,g,1.63,0,0,0,0,1,RegPatterns/Noise.mp3,RegPatterns/Noise.mp3,,,,,,,,,,,,,,,,,,,,,,,,,,,
,,,,,,,,,,,,,train23_audtrian1,2023-11-15_15h51.58.284,AudTraining1,2021.2.3,Win32,59.90176111,,,,,,,,,,,,space,4.4402,RegPatterns/21-ms_2_1_1_3_1_1_3_unit270.mp3,0,0,0,0,0,1,,,,,,,,,,,,,,,,,,
,,,,,,,,,,,,,train23_audtrian1,2023-11-15_15h51.58.284,AudTraining1,2021.2.3,Win32,59.90176111,,,,,,,,,,,,,,RegPatterns/21d-ms_2_1_1_3_1_3_1_unit270.mp3,2,1,0,1,0,1,,,,,,,,,,,,,,,,,,
,,,,,,,,,,,,,train23_audtrian1,2023-11-15_15h51.58.284,AudTraining1,2021.2.3,Win32,59.90176111,,,,,,,,,,,,,,RegPatterns/21-ms_2_1_1_3_1_1_3_unit270.mp3,0,2,0,2,0,1,,,,,,,,,,,,,,,,,,
,,,,,,,,,,,,,train23_audtrian1,2023-11-15_15h51.58.284,AudTraining1,2021.2.3,Win32,59.90176111,,,,,,,,,,,,,,,,,,,,,2,1.936,0,0,0,7,1,RegPatterns/21-ms_2_1_1_3_1_1_3_unit270.mp3,RegPatterns/21d-ms_2_1_1_3_1_3_1_unit270.mp3,,,,,,,,,
,,,,,,,,,,,,,train23_audtrian1,2023-11-15_15h51.58.284,AudTraining1,2021.2.3,Win32,59.90176111,,,,,,,,,,,,,,RegPatterns/06-ms_4_3_1_2_2_unit270.mp3,0,0,0,0,0,1,,,,,,,,,,,,,,,,,,
,,,,,,,,,,,,,train23_audtrian1,2023-11-15_15h51.58.284,AudTraining1,2021.2.3,Win32,59.90176111,,,,,,,,,,,,,,RegPatterns/06d-ms_4_1_3_2_2_unit270.mp3,2,1,0,1,0,1,,,,,,,,,,,,,,,,,,
,,,,,,,,,,,,,train23_audtrian1,2023-11-15_15h51.58.284,AudTraining1,2021.2.3,Win32,59.90176111,,,,,,,,,,,,,,RegPatterns/06-ms_4_3_1_2_2_unit270.mp3,0,2,0,2,0,1,,,,,,,,,,,,,,,,,,
,,,,,,,,,,,,,train23_audtrian1,2023-11-15_15h51.58.284,AudTraining1,2021.2.3,Win32,59.90176111,,,,,,,,,,,,,,,,,,,,,2,0.418,0,1,1,1,1,RegPatterns/06-ms_4_3_1_2_2_unit270.mp3,RegPatterns/06d-ms_4_1_3_2_2_unit270.mp3,,,,,,,,,
,,,,,,,,,,,,,train23_audtrian1,2023-11-15_15h51.58.284,AudTraining1,2021.2.3,Win32,59.90176111,,,,,,,,,,,,,,RegPatterns/07d-ms_1_1_2_1_3_4_unit230.mp3,1,0,0,0,0,1,,,,,,,,,,,,,,,,,,
,,,,,,,,,,,,,train23_audtrian1,2023-11-15_15h51.58.284,AudTraining1,2021.2.3,Win32,59.90176111,,,,,,,,,,,,,,RegPatterns/07-ms_1_1_2_3_1_4_unit230.mp3,0,1,0,1,0,1,,,,,,,,,,,,,,,,,,
,,,,,,,,,,,,,train23_audtrian1,2023-11-15_15h51.58.284,AudTraining1,2021.2.3,Win32,59.90176111,,,,,,,,,,,,,,RegPatterns/07-ms_1_1_2_3_1_4_unit230.mp3,0,2,0,2,0,1,,,,,,,,,,,,,,,,,,
,,,,,,,,,,,,,train23_audtrian1,2023-11-15_15h51.58.284,AudTraining1,2021.2.3,Win32,59.90176111,,,,,,,,,,,,,,,,,,,,,1,0.4573,0,2,2,2,1,RegPatterns/07-ms_1_1_2_3_1_4_unit230.mp3,RegPatterns/07d-ms_1_1_2_1_3_4_unit230.mp3,,,,,,,,,
,,,,,,,,,,,,,train23_audtrian1,2023-11-15_15h51.58.284,AudTraining1,2021.2.3,Win32,59.90176111,,,,,,,,,,,,,,RegPatterns/04d-ms_4_3_1_3_1_unit230.mp3,1,0,0,0,0,1,,,,,,,,,,,,,,,,,,
,,,,,,,,,,,,,train23_audtrian1,2023-11-15_15h51.58.284,AudTraining1,2021.2.3,Win32,59.90176111,,,,,,,,,,,,,,RegPatterns/04-ms_4_1_3_3_1_unit230.mp3,0,1,0,1,0,1,,,,,,,,,,,,,,,,,,
,,,,,,,,,,,,,train23_audtrian1,2023-11-15_15h51.58.284,AudTraining1,2021.2.3,Win32,59.90176111,,,,,,,,,,,,,,RegPatterns/04-ms_4_1_3_3_1_unit230.mp3,0,2,0,2,0,1,,,,,,,,,,,,,,,,,,
,,,,,,,,,,,,,train23_audtrian1,2023-11-15_15h51.58.284,AudTraining1,2021.2.3,Win32,59.90176111,,,,,,,,,,,,,,,,,,,,,2,0.7347,0,3,3,0,1,RegPatterns/04-ms_4_1_3_3_1_unit230.mp3,RegPatterns/04d-ms_4_3_1_3_1_unit230.mp3,,,,,,,,,
,,,,,,,,,,,,,train23_audtrian1,2023-11-15_15h51.58.284,AudTraining1,2021.2.3,Win32,59.90176111,,,,,,,,,,,,,,RegPatterns/23-ms_4_1_1_1_1_3_1_unit250.mp3,0,0,0,0,0,1,,,,,,,,,,,,,,,,,,
,,,,,,,,,,,,,train23_audtrian1,2023-11-15_15h51.58.284,AudTraining1,2021.2.3,Win32,59.90176111,,,,,,,,,,,,,,RegPatterns/23-ms_4_1_1_1_1_3_1_unit250.mp3,0,1,0,1,0,1,,,,,,,,,,,,,,,,,,
,,,,,,,,,,,,,train23_audtrian1,2023-11-15_15h51.58.284,AudTraining1,2021.2.3,Win32,59.90176111,,,,,,,,,,,,,,RegPatterns/23d-ms_4_1_1_1_1_1_3_unit250.mp3,3,2,0,2,0,1,,,,,,,,,,,,,,,,,,
,,,,,,,,,,,,,train23_audtrian1,2023-11-15_15h51.58.284,AudTraining1,2021.2.3,Win32,59.90176111,,,,,,,,,,,,,,,,,,,,,3,0.3337,0,4,4,8,1,RegPatterns/23-ms_4_1_1_1_1_3_1_unit250.mp3,RegPatterns/23d-ms_4_1_1_1_1_1_3_unit250.mp3,,,,,,,,,
,,,,,,,,,,,,,train23_audtrian1,2023-11-15_15h51.58.284,AudTraining1,2021.2.3,Win32,59.90176111,,,,,,,,,,,,,,RegPatterns/17d-ms_4_1_1_2_1_3_unit250.mp3,1,0,0,0,0,1,,,,,,,,,,,,,,,,,,
,,,,,,,,,,,,,train23_audtrian1,2023-11-15_15h51.58.284,AudTraining1,2021.2.3,Win32,59.90176111,,,,,,,,,,,,,,RegPatterns/17-ms_4_1_1_2_3_1_unit250.mp3,0,1,0,1,0,1,,,,,,,,,,,,,,,,,,
,,,,,,,,,,,,,train23_audtrian1,2023-11-15_15h51.58.284,AudTraining1,2021.2.3,Win32,59.90176111,,,,,,,,,,,,,,RegPatterns/17-ms_4_1_1_2_3_1_unit250.mp3,0,2,0,2,0,1,,,,,,,,,,,,,,,,,,
,,,,,,,,,,,,,train23_audtrian1,2023-11-15_15h51.58.284,AudTraining1,2021.2.3,Win32,59.90176111,,,,,,,,,,,,,,,,,,,,,1,0.6183,0,5,5,6,1,RegPatterns/17-ms_4_1_1_2_3_1_unit250.mp3,RegPatterns/17d-ms_4_1_1_2_1_3_unit250.mp3,,,,,,,,,
,,,,,,,,,,,,,train23_audtrian1,2023-11-15_15h51.58.284,AudTraining1,2021.2.3,Win32,59.90176111,,,,,,,,,,,,,,RegPatterns/13-ms_2_1_1_2_2_4_unit230.mp3,0,0,0,0,0,1,,,,,,,,,,,,,,,,,,
,,,,,,,,,,,,,train23_audtrian1,2023-11-15_15h51.58.284,AudTraining1,2021.2.3,Win32,59.90176111,,,,,,,,,,,,,,RegPatterns/13d-ms_1_1_2_2_2_4_unit230.mp3,2,1,0,1,0,1,,,,,,,,,,,,,,,,,,
,,,,,,,,,,,,,train23_audtrian1,2023-11-15_15h51.58.284,AudTraining1,2021.2.3,Win32,59.90176111,,,,,,,,,,,,,,RegPatterns/13-ms_2_1_1_2_2_4_unit230.mp3,0,2,0,2,0,1,,,,,,,,,,,,,,,,,,
,,,,,,,,,,,,,train23_audtrian1,2023-11-15_15h51.58.284,AudTraining1,2021.2.3,Win32,59.90176111,,,,,,,,,,,,,,,,,,,,,2,0.4005,0,6,6,4,1,RegPatterns/13-ms_2_1_1_2_2_4_unit230.mp3,RegPatterns/13d-ms_1_1_2_2_2_4_unit230.mp3,,,,,,,,,
,,,,,,,,,,,,,train23_audtrian1,2023-11-15_15h51.58.284,AudTraining1,2021.2.3,Win32,59.90176111,,,,,,,,,,,,,,RegPatterns/24-ms_4_2_2_1_1_1_1_unit230.mp3,0,0,0,0,0,1,,,,,,,,,,,,,,,,,,
,,,,,,,,,,,,,train23_audtrian1,2023-11-15_15h51.58.284,AudTraining1,2021.2.3,Win32,59.90176111,,,,,,,,,,,,,,RegPatterns/24d-ms_4_2_1_1_2_1_1_unit230.mp3,2,1,0,1,0,1,,,,,,,,,,,,,,,,,,
,,,,,,,,,,,,,train23_audtrian1,2023-11-15_15h51.58.284,AudTraining1,2021.2.3,Win32,59.90176111,,,,,,,,,,,,,,RegPatterns/24-ms_4_2_2_1_1_1_1_unit230.mp3,0,2,0,2,0,1,,,,,,,,,,,,,,,,,,
,,,,,,,,,,,,,train23_audtrian1,2023-11-15_15h51.58.284,AudTraining1,2021.2.3,Win32,59.90176111,,,,,,,,,,,,,,,,,,,,,2,0.4518,0,7,7,9,1,RegPatterns/24-ms_4_2_2_1_1_1_1_unit230.mp3,RegPatterns/24d-ms_4_2_1_1_2_1_1_unit230.mp3,,,,,,,,,
,,,,,,,,,,,,,train23_audtrian1,2023-11-15_15h51.58.284,AudTraining1,2021.2.3,Win32,59.90176111,,,,,,,,,,,,,,RegPatterns/28-ms_2_2_1_1_1_1_4_unit250.mp3,0,0,0,0,0,1,,,,,,,,,,,,,,,,,,
,,,,,,,,,,,,,train23_audtrian1,2023-11-15_15h51.58.284,AudTraining1,2021.2.3,Win32,59.90176111,,,,,,,,,,,,,,RegPatterns/28d-ms_2_1_1_2_1_1_4_unit250.mp3,2,1,0,1,0,1,,,,,,,,,,,,,,,,,,
,,,,,,,,,,,,,train23_audtrian1,2023-11-15_15h51.58.284,AudTraining1,2021.2.3,Win32,59.90176111,,,,,,,,,,,,,,RegPatterns/28-ms_2_2_1_1_1_1_4_unit250.mp3,0,2,0,2,0,1,,,,,,,,,,,,,,,,,,
,,,,,,,,,,,,,train23_audtrian1,2023-11-15_15h51.58.284,AudTraining1,2021.2.3,Win32,59.90176111,,,,,,,,,,,,,,,,,,,,,3,1.5857,0,8,8,11,1,RegPatterns/28-ms_2_2_1_1_1_1_4_unit250.mp3,RegPatterns/28d-ms_2_1_1_2_1_1_4_unit250.mp3,,,,,,,,,
,,,,,,,,,,,,,train23_audtrian1,2023-11-15_15h51.58.284,AudTraining1,2021.2.3,Win32,59.90176111,,,,,,,,,,,,,,RegPatterns/15-ms_2_2_1_3_3_1_unit270.mp3,0,0,0,0,0,1,,,,,,,,,,,,,,,,,,
,,,,,,,,,,,,,train23_audtrian1,2023-11-15_15h51.58.284,AudTraining1,2021.2.3,Win32,59.90176111,,,,,,,,,,,,,,RegPatterns/15d-ms_2_2_1_3_1_3_unit270.mp3,2,1,0,1,0,1,,,,,,,,,,,,,,,,,,
,,,,,,,,,,,,,train23_audtrian1,2023-11-15_15h51.58.284,AudTraining1,2021.2.3,Win32,59.90176111,,,,,,,,,,,,,,RegPatterns/15-ms_2_2_1_3_3_1_unit270.mp3,0,2,0,2,0,1,,,,,,,,,,,,,,,,,,
,,,,,,,,,,,,,train23_audtrian1,2023-11-15_15h51.58.284,AudTraining1,2021.2.3,Win32,59.90176111,,,,,,,,,,,,,,,,,,,,,2,0.3221,0,9,9,5,1,RegPatterns/15-ms_2_2_1_3_3_1_unit270.mp3,RegPatterns/15d-ms_2_2_1_3_1_3_unit270.mp3,,,,,,,,,
,,,,,,,,,,,,,train23_audtrian1,2023-11-15_15h51.58.284,AudTraining1,2021.2.3,Win32,59.90176111,,,,,,,,,,,,,,RegPatterns/27-ms_1_1_2_3_1_1_3_unit270.mp3,0,0,0,0,0,1,,,,,,,,,,,,,,,,,,
,,,,,,,,,,,,,train23_audtrian1,2023-11-15_15h51.58.284,AudTraining1,2021.2.3,Win32,59.90176111,,,,,,,,,,,,,,RegPatterns/27d-ms_1_1_2_3_1_3_1_unit270.mp3,2,1,0,1,0,1,,,,,,,,,,,,,,,,,,
,,,,,,,,,,,,,train23_audtrian1,2023-11-15_15h51.58.284,AudTraining1,2021.2.3,Win32,59.90176111,,,,,,,,,,,,,,RegPatterns/27-ms_1_1_2_3_1_1_3_unit270.mp3,0,2,0,2,0,1,,,,,,,,,,,,,,,,,,
,,,,,,,,,,,,,train23_audtrian1,2023-11-15_15h51.58.284,AudTraining1,2021.2.3,Win32,59.90176111,,,,,,,,,,RegPatterns/Noise.mp3,RegPatterns/Noise.mp3,,,,,,,,,,3,0.8729,,,,,,,,g,0.4342,0,0,0,0,1,,
,,,,,,,,,,,,,train23_audtrian1,2023-11-15_15h51.58.284,AudTraining1,2021.2.3,Win32,59.90176111,,,,,,,,,,,,,,,,,,,,,,,0,10,10,10,1,RegPatterns/27-ms_1_1_2_3_1_1_3_unit270.mp3,RegPatterns/27d-ms_1_1_2_3_1_3_1_unit270.mp3,,,,,,,,,
,,,,,,,,,,,,,train23_audtrian1,2023-11-15_15h51.58.284,AudTraining1,2021.2.3,Win32,59.90176111,,,,,,,,,,,,,,RegPatterns/11d-ms_2_2_3_1_3_1_unit250.mp3,1,0,0,0,0,1,,,,,,,,,,,,,,,,,,
,,,,,,,,,,,,,train23_audtrian1,2023-11-15_15h51.58.284,AudTraining1,2021.2.3,Win32,59.90176111,,,,,,,,,,,,,,RegPatterns/11-ms_2_2_3_1_1_3_unit250.mp3,0,1,0,1,0,1,,,,,,,,,,,,,,,,,,
,,,,,,,,,,,,,train23_audtrian1,2023-11-15_15h51.58.284,AudTraining1,2021.2.3,Win32,59.90176111,,,,,,,,,,,,,,RegPatterns/11-ms_2_2_3_1_1_3_unit250.mp3,0,2,0,2,0,1,,,,,,,,,,,,,,,,,,
,,,,,,,,,,,,,train23_audtrian1,2023-11-15_15h51.58.284,AudTraining1,2021.2.3,Win32,59.90176111,,,,,,,,,,,,,,,,,,,,,1,0.4202,0,11,11,3,1,RegPatterns/11-ms_2_2_3_1_1_3_unit250.mp3,RegPatterns/11d-ms_2_2_3_1_3_1_unit250.mp3,,,,,,,,,
,,,,,,,,,,,,,train23_audtrian1,2023-11-15_15h51.58.284,AudTraining1,2021.2.3,Win32,59.90176111,,,,,,,,,,,,,,RegPatterns/27d-ms_1_1_2_3_1_3_1_unit270.mp3,1,0,0,0,0,1,,,,,,,,,,,,,,,,,,
,,,,,,,,,,,,,train23_audtrian1,2023-11-15_15h51.58.284,AudTraining1,2021.2.3,Win32,59.90176111,,,,,,,,,,,,,,RegPatterns/27-ms_1_1_2_3_1_1_3_unit270.mp3,0,1,0,1,0,1,,,,,,,,,,,,,,,,,,
,,,,,,,,,,,,,train23_audtrian1,2023-11-15_15h51.58.284,AudTraining1,2021.2.3,Win32,59.90176111,,,,,,,,,,,,,,RegPatterns/27-ms_1_1_2_3_1_1_3_unit270.mp3,0,2,0,2,0,1,,,,,,,,,,,,,,,,,,
,,,,,,,,,,,,,train23_audtrian1,2023-11-15_15h51.58.284,AudTraining1,2021.2.3,Win32,59.90176111,,,,,,,,,,,,,,,,,,,,,1,0.3681,1,0,12,10,1,RegPatterns/27-ms_1_1_2_3_1_1_3_unit270.mp3,RegPatterns/27d-ms_1_1_2_3_1_3_1_unit270.mp3,,,,,,,,,
,,,,,,,,,,,,,train23_audtrian1,2023-11-15_15h51.58.284,AudTraining1,2021.2.3,Win32,59.90176111,,,,,,,,,,,,,,RegPatterns/21d-ms_2_1_1_3_1_3_1_unit270.mp3,1,0,0,0,0,1,,,,,,,,,,,,,,,,,,
,,,,,,,,,,,,,train23_audtrian1,2023-11-15_15h51.58.284,AudTraining1,2021.2.3,Win32,59.90176111,,,,,,,,,,,,,,RegPatterns/21-ms_2_1_1_3_1_1_3_unit270.mp3,0,1,0,1,0,1,,,,,,,,,,,,,,,,,,
,,,,,,,,,,,,,train23_audtrian1,2023-11-15_15h51.58.284,AudTraining1,2021.2.3,Win32,59.90176111,,,,,,,,,,,,,,RegPatterns/21-ms_2_1_1_3_1_1_3_unit270.mp3,0,2,0,2,0,1,,,,,,,,,,,,,,,,,,
,,,,,,,,,,,,,train23_audtrian1,2023-11-15_15h51.58.284,AudTraining1,2021.2.3,Win32,59.90176111,,,,,,,,,,,,,,,,,,,,,1,0.5361,1,1,13,7,1,RegPatterns/21-ms_2_1_1_3_1_1_3_unit270.mp3,RegPatterns/21d-ms_2_1_1_3_1_3_1_unit270.mp3,,,,,,,,,
,,,,,,,,,,,,,train23_audtrian1,2023-11-15_15h51.58.284,AudTraining1,2021.2.3,Win32,59.90176111,,,,,,,,,,,,,,RegPatterns/11-ms_2_2_3_1_1_3_unit250.mp3,0,0,0,0,0,1,,,,,,,,,,,,,,,,,,
,,,,,,,,,,,,,train23_audtrian1,2023-11-15_15h51.58.284,AudTraining1,2021.2.3,Win32,59.90176111,,,,,,,,,,,,,,RegPatterns/11d-ms_2_2_3_1_3_1_unit250.mp3,2,1,0,1,0,1,,,,,,,,,,,,,,,,,,
,,,,,,,,,,,,,train23_audtrian1,2023-11-15_15h51.58.284,AudTraining1,2021.2.3,Win32,59.90176111,,,,,,,,,,,,,,RegPatterns/11-ms_2_2_3_1_1_3_unit250.mp3,0,2,0,2,0,1,,,,,,,,,,,,,,,,,,
,,,,,,,,,,,,,train23_audtrian1,2023-11-15_15h51.58.284,AudTraining1,2021.2.3,Win32,59.90176111,,,,,,,,,,,,,,,,,,,,,1,0.419,1,2,14,3,1,RegPatterns/11-ms_2_2_3_1_1_3_unit250.mp3,RegPatterns/11d-ms_2_2_3_1_3_1_unit250.mp3,,,,,,,,,
,,,,,,,,,,,,,train23_audtrian1,2023-11-15_15h51.58.284,AudTraining1,2021.2.3,Win32,59.90176111,,,,,,,,,,,,,,RegPatterns/13-ms_2_1_1_2_2_4_unit230.mp3,0,0,0,0,0,1,,,,,,,,,,,,,,,,,,
,,,,,,,,,,,,,train23_audtrian1,2023-11-15_15h51.58.284,AudTraining1,2021.2.3,Win32,59.90176111,,,,,,,,,,,,,,RegPatterns/13-ms_2_1_1_2_2_4_unit230.mp3,0,1,0,1,0,1,,,,,,,,,,,,,,,,,,
,,,,,,,,,,,,,train23_audtrian1,2023-11-15_15h51.58.284,AudTraining1,2021.2.3,Win32,59.90176111,,,,,,,,,,,,,,RegPatterns/13d-ms_1_1_2_2_2_4_unit230.mp3,3,2,0,2,0,1,,,,,,,,,,,,,,,,,,
,,,,,,,,,,,,,train23_audtrian1,2023-11-15_15h51.58.284,AudTraining1,2021.2.3,Win32,59.90176111,,,,,,,,,,,,,,,,,,,,,3,0.3181,1,3,15,4,1,RegPatterns/13-ms_2_1_1_2_2_4_unit230.mp3,RegPatterns/13d-ms_1_1_2_2_2_4_unit230.mp3,,,,,,,,,
,,,,,,,,,,,,,train23_audtrian1,2023-11-15_15h51.58.284,AudTraining1,2021.2.3,Win32,59.90176111,,,,,,,,,,,,,,RegPatterns/06d-ms_4_1_3_2_2_unit270.mp3,1,0,0,0,0,1,,,,,,,,,,,,,,,,,,
,,,,,,,,,,,,,train23_audtrian1,2023-11-15_15h51.58.284,AudTraining1,2021.2.3,Win32,59.90176111,,,,,,,,,,,,,,RegPatterns/06-ms_4_3_1_2_2_unit270.mp3,0,1,0,1,0,1,,,,,,,,,,,,,,,,,,
,,,,,,,,,,,,,train23_audtrian1,2023-11-15_15h51.58.284,AudTraining1,2021.2.3,Win32,59.90176111,,,,,,,,,,,,,,RegPatterns/06-ms_4_3_1_2_2_unit270.mp3,0,2,0,2,0,1,,,,,,,,,,,,,,,,,,
,,,,,,,,,,,,,train23_audtrian1,2023-11-15_15h51.58.284,AudTraining1,2021.2.3,Win32,59.90176111,,,,,,,,,,,,,,,,,,,,,1,0.4228,1,4,16,1,1,RegPatterns/06-ms_4_3_1_2_2_unit270.mp3,RegPatterns/06d-ms_4_1_3_2_2_unit270.mp3,,,,,,,,,
,,,,,,,,,,,,,train23_audtrian1,2023-11-15_15h51.58.284,AudTraining1,2021.2.3,Win32,59.90176111,,,,,,,,,,,,,,RegPatterns/07-ms_1_1_2_3_1_4_unit230.mp3,0,0,0,0,0,1,,,,,,,,,,,,,,,,,,
,,,,,,,,,,,,,train23_audtrian1,2023-11-15_15h51.58.284,AudTraining1,2021.2.3,Win32,59.90176111,,,,,,,,,,,,,,RegPatterns/07-ms_1_1_2_3_1_4_unit230.mp3,0,1,0,1,0,1,,,,,,,,,,,,,,,,,,
,,,,,,,,,,,,,train23_audtrian1,2023-11-15_15h51.58.284,AudTraining1,2021.2.3,Win32,59.90176111,,,,,,,,,,,,,,RegPatterns/07d-ms_1_1_2_1_3_4_unit230.mp3,3,2,0,2,0,1,,,,,,,,,,,,,,,,,,
,,,,,,,,,,,,,train23_audtrian1,2023-11-15_15h51.58.284,AudTraining1,2021.2.3,Win32,59.90176111,,,,,,,,,,,,,,,,,,,,,3,0.384,1,5,17,2,1,RegPatterns/07-ms_1_1_2_3_1_4_unit230.mp3,RegPatterns/07d-ms_1_1_2_1_3_4_unit230.mp3,,,,,,,,,
,,,,,,,,,,,,,train23_audtrian1,2023-11-15_15h51.58.284,AudTraining1,2021.2.3,Win32,59.90176111,,,,,,,,,,,,,,RegPatterns/23d-ms_4_1_1_1_1_1_3_unit250.mp3,1,0,0,0,0,1,,,,,,,,,,,,,,,,,,
,,,,,,,,,,,,,train23_audtrian1,2023-11-15_15h51.58.284,AudTraining1,2021.2.3,Win32,59.90176111,,,,,,,,,,,,,,RegPatterns/23-ms_4_1_1_1_1_3_1_unit250.mp3,0,1,0,1,0,1,,,,,,,,,,,,,,,,,,
,,,,,,,,,,,,,train23_audtrian1,2023-11-15_15h51.58.284,AudTraining1,2021.2.3,Win32,59.90176111,,,,,,,,,,,,,,RegPatterns/23-ms_4_1_1_1_1_3_1_unit250.mp3,0,2,0,2,0,1,,,,,,,,,,,,,,,,,,
,,,,,,,,,,,,,train23_audtrian1,2023-11-15_15h51.58.284,AudTraining1,2021.2.3,Win32,59.90176111,,,,,,,,,,,,,,,,,,,,,1,0.4345,1,6,18,8,1,RegPatterns/23-ms_4_1_1_1_1_3_1_unit250.mp3,RegPatterns/23d-ms_4_1_1_1_1_1_3_unit250.mp3,,,,,,,,,
,,,,,,,,,,,,,train23_audtrian1,2023-11-15_15h51.58.284,AudTraining1,2021.2.3,Win32,59.90176111,,,,,,,,,,,,,,RegPatterns/17-ms_4_1_1_2_3_1_unit250.mp3,0,0,0,0,0,1,,,,,,,,,,,,,,,,,,
,,,,,,,,,,,,,train23_audtrian1,2023-11-15_15h51.58.284,AudTraining1,2021.2.3,Win32,59.90176111,,,,,,,,,,,,,,RegPatterns/17d-ms_4_1_1_2_1_3_unit250.mp3,2,1,0,1,0,1,,,,,,,,,,,,,,,,,,
,,,,,,,,,,,,,train23_audtrian1,2023-11-15_15h51.58.284,AudTraining1,2021.2.3,Win32,59.90176111,,,,,,,,,,,,,,RegPatterns/17-ms_4_1_1_2_3_1_unit250.mp3,0,2,0,2,0,1,,,,,,,,,,,,,,,,,,
,,,,,,,,,,,,,train23_audtrian1,2023-11-15_15h51.58.284,AudTraining1,2021.2.3,Win32,59.90176111,,,,,,,,,,,,,,,,,,,,,2,0.4857,1,7,19,6,1,RegPatterns/17-ms_4_1_1_2_3_1_unit250.mp3,RegPatterns/17d-ms_4_1_1_2_1_3_unit250.mp3,,,,,,,,,
,,,,,,,,,,,,,train23_audtrian1,2023-11-15_15h51.58.284,AudTraining1,2021.2.3,Win32,59.90176111,,,,,,,,,,,,,,RegPatterns/04-ms_4_1_3_3_1_unit230.mp3,0,0,0,0,0,1,,,,,,,,,,,,,,,,,,
,,,,,,,,,,,,,train23_audtrian1,2023-11-15_15h51.58.284,AudTraining1,2021.2.3,Win32,59.90176111,,,,,,,,,,,,,,RegPatterns/04-ms_4_1_3_3_1_unit230.mp3,0,1,0,1,0,1,,,,,,,,,,,,,,,,,,
,,,,,,,,,,,,,train23_audtrian1,2023-11-15_15h51.58.284,AudTraining1,2021.2.3,Win32,59.90176111,,,,,,,,,,,,,,RegPatterns/04d-ms_4_3_1_3_1_unit230.mp3,3,2,0,2,0,1,,,,,,,,,,,,,,,,,,
,,,,,,,,,,,,,train23_audtrian1,2023-11-15_15h51.58.284,AudTraining1,2021.2.3,Win32,59.90176111,,,,,,,,,,,,,,,,,,,,,3,0.4171,1,8,20,0,1,RegPatterns/04-ms_4_1_3_3_1_unit230.mp3,RegPatterns/04d-ms_4_3_1_3_1_unit230.mp3,,,,,,,,,
,,,,,,,,,,,,,train23_audtrian1,2023-11-15_15h51.58.284,AudTraining1,2021.2.3,Win32,59.90176111,,,,,,,,,,,,,,RegPatterns/24-ms_4_2_2_1_1_1_1_unit230.mp3,0,0,0,0,0,1,,,,,,,,,,,,,,,,,,
,,,,,,,,,,,,,train23_audtrian1,2023-11-15_15h51.58.284,AudTraining1,2021.2.3,Win32,59.90176111,,,,,,,,,,,,,,RegPatterns/24-ms_4_2_2_1_1_1_1_unit230.mp3,0,1,0,1,0,1,,,,,,,,,,,,,,,,,,
,,,,,,,,,,,,,train23_audtrian1,2023-11-15_15h51.58.284,AudTraining1,2021.2.3,Win32,59.90176111,,,,,,,,,,,,,,RegPatterns/24d-ms_4_2_1_1_2_1_1_unit230.mp3,3,2,0,2,0,1,,,,,,,,,,,,,,,,,,
,,,,,,,,,,,,,train23_audtrian1,2023-11-15_15h51.58.284,AudTraining1,2021.2.3,Win32,59.90176111,,,,,,,,,,,,,,,,,,,,,3,0.2577,1,9,21,9,1,RegPatterns/24-ms_4_2_2_1_1_1_1_unit230.mp3,RegPatterns/24d-ms_4_2_1_1_2_1_1_unit230.mp3,,,,,,,,,
,,,,,,,,,,,,,train23_audtrian1,2023-11-15_15h51.58.284,AudTraining1,2021.2.3,Win32,59.90176111,,,,,,,,,,,,,,RegPatterns/15d-ms_2_2_1_3_1_3_unit270.mp3,1,0,0,0,0,1,,,,,,,,,,,,,,,,,,
,,,,,,,,,,,,,train23_audtrian1,2023-11-15_15h51.58.284,AudTraining1,2021.2.3,Win32,59.90176111,,,,,,,,,,,,,,RegPatterns/15-ms_2_2_1_3_3_1_unit270.mp3,0,1,0,1,0,1,,,,,,,,,,,,,,,,,,
,,,,,,,,,,,,,train23_audtrian1,2023-11-15_15h51.58.284,AudTraining1,2021.2.3,Win32,59.90176111,,,,,,,,,,,,,,RegPatterns/15-ms_2_2_1_3_3_1_unit270.mp3,0,2,0,2,0,1,,,,,,,,,,,,,,,,,,
,,,,,,,,,,,,,train23_audtrian1,2023-11-15_15h51.58.284,AudTraining1,2021.2.3,Win32,59.90176111,,,,,,,,,,,,,,,,,,,,,3,0.3715,1,10,22,5,1,RegPatterns/15-ms_2_2_1_3_3_1_unit270.mp3,RegPatterns/15d-ms_2_2_1_3_1_3_unit270.mp3,,,,,,,,,
,,,,,,,,,,,,,train23_audtrian1,2023-11-15_15h51.58.284,AudTraining1,2021.2.3,Win32,59.90176111,,,,,,,,,,,,,,RegPatterns/28-ms_2_2_1_1_1_1_4_unit250.mp3,0,0,0,0,0,1,,,,,,,,,,,,,,,,,,
,,,,,,,,,,,,,train23_audtrian1,2023-11-15_15h51.58.284,AudTraining1,2021.2.3,Win32,59.90176111,,,,,,,,,,,,,,RegPatterns/28-ms_2_2_1_1_1_1_4_unit250.mp3,0,1,0,1,0,1,,,,,,,,,,,,,,,,,,
,,,,,,,,,,,,,train23_audtrian1,2023-11-15_15h51.58.284,AudTraining1,2021.2.3,Win32,59.90176111,,,,,,,,,,,,,,RegPatterns/28d-ms_2_1_1_2_1_1_4_unit250.mp3,3,2,0,2,0,1,,,,,,,,,,,,,,,,,,
,,,,,,,,,,,,,train23_audtrian1,2023-11-15_15h51.58.284,AudTraining1,2021.2.3,Win32,59.90176111,,,,,,,,,,RegPatterns/Noise.mp3,RegPatterns/Noise.mp3,,,,,,,,,,3,0.3852,,,,,,,,g,0.367,0,0,0,0,1,,
,,,,,,,,,,,,,train23_audtrian1,2023-11-15_15h51.58.284,AudTraining1,2021.2.3,Win32,59.90176111,,,,,,,,,,,,,,,,,,,,,,,1,11,23,11,1,RegPatterns/28-ms_2_2_1_1_1_1_4_unit250.mp3,RegPatterns/28d-ms_2_1_1_2_1_1_4_unit250.mp3,,,,,,,,,
,,,,,,,,,,,,,train23_audtrian1,2023-11-15_15h51.58.284,AudTraining1,2021.2.3,Win32,59.90176111,,,,,,,,,,,,,,RegPatterns/13d-ms_1_1_2_2_2_4_unit230.mp3,1,0,0,0,0,1,,,,,,,,,,,,,,,,,,
,,,,,,,,,,,,,train23_audtrian1,2023-11-15_15h51.58.284,AudTraining1,2021.2.3,Win32,59.90176111,,,,,,,,,,,,,,RegPatterns/13-ms_2_1_1_2_2_4_unit230.mp3,0,1,0,1,0,1,,,,,,,,,,,,,,,,,,
,,,,,,,,,,,,,train23_audtrian1,2023-11-15_15h51.58.284,AudTraining1,2021.2.3,Win32,59.90176111,,,,,,,,,,,,,,RegPatterns/13-ms_2_1_1_2_2_4_unit230.mp3,0,2,0,2,0,1,,,,,,,,,,,,,,,,,,
,,,,,,,,,,,,,train23_audtrian1,2023-11-15_15h51.58.284,AudTraining1,2021.2.3,Win32,59.90176111,,,,,,,,,,,,,,,,,,,,,1,0.4549,2,0,24,4,1,RegPatterns/13-ms_2_1_1_2_2_4_unit230.mp3,RegPatterns/13d-ms_1_1_2_2_2_4_unit230.mp3,,,,,,,,,
,,,,,,,,,,,,,train23_audtrian1,2023-11-15_15h51.58.284,AudTraining1,2021.2.3,Win32,59.90176111,,,,,,,,,,,,,,RegPatterns/17-ms_4_1_1_2_3_1_unit250.mp3,0,0,0,0,0,1,,,,,,,,,,,,,,,,,,
,,,,,,,,,,,,,train23_audtrian1,2023-11-15_15h51.58.284,AudTraining1,2021.2.3,Win32,59.90176111,,,,,,,,,,,,,,RegPatterns/17-ms_4_1_1_2_3_1_unit250.mp3,0,1,0,1,0,1,,,,,,,,,,,,,,,,,,
,,,,,,,,,,,,,train23_audtrian1,2023-11-15_15h51.58.284,AudTraining1,2021.2.3,Win32,59.90176111,,,,,,,,,,,,,,RegPatterns/17d-ms_4_1_1_2_1_3_unit250.mp3,3,2,0,2,0,1,,,,,,,,,,,,,,,,,,
,,,,,,,,,,,,,train23_audtrian1,2023-11-15_15h51.58.284,AudTraining1,2021.2.3,Win32,59.90176111,,,,,,,,,,,,,,,,,,,,,3,0.3525,2,1,25,6,1,RegPatterns/17-ms_4_1_1_2_3_1_unit250.mp3,RegPatterns/17d-ms_4_1_1_2_1_3_unit250.mp3,,,,,,,,,
,,,,,,,,,,,,,train23_audtrian1,2023-11-15_15h51.58.284,AudTraining1,2021.2.3,Win32,59.90176111,,,,,,,,,,,,,,RegPatterns/24d-ms_4_2_1_1_2_1_1_unit230.mp3,1,0,0,0,0,1,,,,,,,,,,,,,,,,,,
,,,,,,,,,,,,,train23_audtrian1,2023-11-15_15h51.58.284,AudTraining1,2021.2.3,Win32,59.90176111,,,,,,,,,,,,,,RegPatterns/24-ms_4_2_2_1_1_1_1_unit230.mp3,0,1,0,1,0,1,,,,,,,,,,,,,,,,,,
,,,,,,,,,,,,,train23_audtrian1,2023-11-15_15h51.58.284,AudTraining1,2021.2.3,Win32,59.90176111,,,,,,,,,,,,,,RegPatterns/24-ms_4_2_2_1_1_1_1_unit230.mp3,0,2,0,2,0,1,,,,,,,,,,,,,,,,,,
,,,,,,,,,,,,,train23_audtrian1,2023-11-15_15h51.58.284,AudTraining1,2021.2.3,Win32,59.90176111,,,,,,,,,,,,,,,,,,,,,1,0.4513,2,2,26,9,1,RegPatterns/24-ms_4_2_2_1_1_1_1_unit230.mp3,RegPatterns/24d-ms_4_2_1_1_2_1_1_unit230.mp3,,,,,,,,,
,,,,,,,,,,,,,train23_audtrian1,2023-11-15_15h51.58.284,AudTraining1,2021.2.3,Win32,59.90176111,,,,,,,,,,,,,,RegPatterns/15-ms_2_2_1_3_3_1_unit270.mp3,0,0,0,0,0,1,,,,,,,,,,,,,,,,,,
,,,,,,,,,,,,,train23_audtrian1,2023-11-15_15h51.58.284,AudTraining1,2021.2.3,Win32,59.90176111,,,,,,,,,,,,,,RegPatterns/15-ms_2_2_1_3_3_1_unit270.mp3,0,1,0,1,0,1,,,,,,,,,,,,,,,,,,
,,,,,,,,,,,,,train23_audtrian1,2023-11-15_15h51.58.284,AudTraining1,2021.2.3,Win32,59.90176111,,,,,,,,,,,,,,RegPatterns/15d-ms_2_2_1_3_1_3_unit270.mp3,3,2,0,2,0,1,,,,,,,,,,,,,,,,,,
,,,,,,,,,,,,,train23_audtrian1,2023-11-15_15h51.58.284,AudTraining1,2021.2.3,Win32,59.90176111,,,,,,,,,,,,,,,,,,,,,3,0.2336,2,3,27,5,1,RegPatterns/15-ms_2_2_1_3_3_1_unit270.mp3,RegPatterns/15d-ms_2_2_1_3_1_3_unit270.mp3,,,,,,,,,
,,,,,,,,,,,,,train23_audtrian1,2023-11-15_15h51.58.284,AudTraining1,2021.2.3,Win32,59.90176111,,,,,,,,,,,,,,RegPatterns/04-ms_4_1_3_3_1_unit230.mp3,0,0,0,0,0,1,,,,,,,,,,,,,,,,,,
,,,,,,,,,,,,,train23_audtrian1,2023-11-15_15h51.58.284,AudTraining1,2021.2.3,Win32,59.90176111,,,,,,,,,,,,,,RegPatterns/04d-ms_4_3_1_3_1_unit230.mp3,2,1,0,1,0,1,,,,,,,,,,,,,,,,,,
,,,,,,,,,,,,,train23_audtrian1,2023-11-15_15h51.58.284,AudTraining1,2021.2.3,Win32,59.90176111,,,,,,,,,,,,,,RegPatterns/04-ms_4_1_3_3_1_unit230.mp3,0,2,0,2,0,1,,,,,,,,,,,,,,,,,,
,,,,,,,,,,,,,train23_audtrian1,2023-11-15_15h51.58.284,AudTraining1,2021.2.3,Win32,59.90176111,,,,,,,,,,,,,,,,,,,,,2,0.4755,2,4,28,0,1,RegPatterns/04-ms_4_1_3_3_1_unit230.mp3,RegPatterns/04d-ms_4_3_1_3_1_unit230.mp3,,,,,,,,,
,,,,,,,,,,,,,train23_audtrian1,2023-11-15_15h51.58.284,AudTraining1,2021.2.3,Win32,59.90176111,,,,,,,,,,,,,,RegPatterns/06-ms_4_3_1_2_2_unit270.mp3,0,0,0,0,0,1,,,,,,,,,,,,,,,,,,
,,,,,,,,,,,,,train23_audtrian1,2023-11-15_15h51.58.284,AudTraining1,2021.2.3,Win32,59.90176111,,,,,,,,,,,,,,RegPatterns/06-ms_4_3_1_2_2_unit270.mp3,0,1,0,1,0,1,,,,,,,,,,,,,,,,,,
,,,,,,,,,,,,,train23_audtrian1,2023-11-15_15h51.58.284,AudTraining1,2021.2.3,Win32,59.90176111,,,,,,,,,,,,,,RegPatterns/06d-ms_4_1_3_2_2_unit270.mp3,3,2,0,2,0,1,,,,,,,,,,,,,,,,,,
,,,,,,,,,,,,,train23_audtrian1,2023-11-15_15h51.58.284,AudTraining1,2021.2.3,Win32,59.90176111,,,,,,,,,,,,,,,,,,,,,3,0.2671,2,5,29,1,1,RegPatterns/06-ms_4_3_1_2_2_unit270.mp3,RegPatterns/06d-ms_4_1_3_2_2_unit270.mp3,,,,,,,,,
,,,,,,,,,,,,,train23_audtrian1,2023-11-15_15h51.58.284,AudTraining1,2021.2.3,Win32,59.90176111,,,,,,,,,,,,,,RegPatterns/07-ms_1_1_2_3_1_4_unit230.mp3,0,0,0,0,0,1,,,,,,,,,,,,,,,,,,
,,,,,,,,,,,,,train23_audtrian1,2023-11-15_15h51.58.284,AudTraining1,2021.2.3,Win32,59.90176111,,,,,,,,,,,,,,RegPatterns/07d-ms_1_1_2_1_3_4_unit230.mp3,2,1,0,1,0,1,,,,,,,,,,,,,,,,,,
,,,,,,,,,,,,,train23_audtrian1,2023-11-15_15h51.58.284,AudTraining1,2021.2.3,Win32,59.90176111,,,,,,,,,,,,,,RegPatterns/07-ms_1_1_2_3_1_4_unit230.mp3,0,2,0,2,0,1,,,,,,,,,,,,,,,,,,
,,,,,,,,,,,,,train23_audtrian1,2023-11-15_15h51.58.284,AudTraining1,2021.2.3,Win32,59.90176111,,,,,,,,,,,,,,,,,,,,,2,0.4679,2,6,30,2,1,RegPatterns/07-ms_1_1_2_3_1_4_unit230.mp3,RegPatterns/07d-ms_1_1_2_1_3_4_unit230.mp3,,,,,,,,,
,,,,,,,,,,,,,train23_audtrian1,2023-11-15_15h51.58.284,AudTraining1,2021.2.3,Win32,59.90176111,,,,,,,,,,,,,,RegPatterns/23-ms_4_1_1_1_1_3_1_unit250.mp3,0,0,0,0,0,1,,,,,,,,,,,,,,,,,,
,,,,,,,,,,,,,train23_audtrian1,2023-11-15_15h51.58.284,AudTraining1,2021.2.3,Win32,59.90176111,,,,,,,,,,,,,,RegPatterns/23d-ms_4_1_1_1_1_1_3_unit250.mp3,2,1,0,1,0,1,,,,,,,,,,,,,,,,,,
,,,,,,,,,,,,,train23_audtrian1,2023-11-15_15h51.58.284,AudTraining1,2021.2.3,Win32,59.90176111,,,,,,,,,,,,,,RegPatterns/23-ms_4_1_1_1_1_3_1_unit250.mp3,0,2,0,2,0,1,,,,,,,,,,,,,,,,,,
,,,,,,,,,,,,,train23_audtrian1,2023-11-15_15h51.58.284,AudTraining1,2021.2.3,Win32,59.90176111,,,,,,,,,,,,,,,,,,,,,2,0.5188,2,7,31,8,1,RegPatterns/23-ms_4_1_1_1_1_3_1_unit250.mp3,RegPatterns/23d-ms_4_1_1_1_1_1_3_unit250.mp3,,,,,,,,,
,,,,,,,,,,,,,train23_audtrian1,2023-11-15_15h51.58.284,AudTraining1,2021.2.3,Win32,59.90176111,,,,,,,,,,,,,,RegPatterns/28d-ms_2_1_1_2_1_1_4_unit250.mp3,1,0,0,0,0,1,,,,,,,,,,,,,,,,,,
,,,,,,,,,,,,,train23_audtrian1,2023-11-15_15h51.58.284,AudTraining1,2021.2.3,Win32,59.90176111,,,,,,,,,,,,,,RegPatterns/28-ms_2_2_1_1_1_1_4_unit250.mp3,0,1,0,1,0,1,,,,,,,,,,,,,,,,,,
,,,,,,,,,,,,,train23_audtrian1,2023-11-15_15h51.58.284,AudTraining1,2021.2.3,Win32,59.90176111,,,,,,,,,,,,,,RegPatterns/28-ms_2_2_1_1_1_1_4_unit250.mp3,0,2,0,2,0,1,,,,,,,,,,,,,,,,,,
,,,,,,,,,,,,,train23_audtrian1,2023-11-15_15h51.58.284,AudTraining1,2021.2.3,Win32,59.90176111,,,,,,,,,,,,,,,,,,,,,1,0.4711,2,8,32,11,1,RegPatterns/28-ms_2_2_1_1_1_1_4_unit250.mp3,RegPatterns/28d-ms_2_1_1_2_1_1_4_unit250.mp3,,,,,,,,,
,,,,,,,,,,,,,train23_audtrian1,2023-11-15_15h51.58.284,AudTraining1,2021.2.3,Win32,59.90176111,,,,,,,,,,,,,,RegPatterns/27-ms_1_1_2_3_1_1_3_unit270.mp3,0,0,0,0,0,1,,,,,,,,,,,,,,,,,,
,,,,,,,,,,,,,train23_audtrian1,2023-11-15_15h51.58.284,AudTraining1,2021.2.3,Win32,59.90176111,,,,,,,,,,,,,,RegPatterns/27-ms_1_1_2_3_1_1_3_unit270.mp3,0,1,0,1,0,1,,,,,,,,,,,,,,,,,,
,,,,,,,,,,,,,train23_audtrian1,2023-11-15_15h51.58.284,AudTraining1,2021.2.3,Win32,59.90176111,,,,,,,,,,,,,,RegPatterns/27d-ms_1_1_2_3_1_3_1_unit270.mp3,3,2,0,2,0,1,,,,,,,,,,,,,,,,,,
,,,,,,,,,,,,,train23_audtrian1,2023-11-15_15h51.58.284,AudTraining1,2021.2.3,Win32,59.90176111,,,,,,,,,,,,,,,,,,,,,1,5.1374,2,9,33,10,1,RegPatterns/27-ms_1_1_2_3_1_1_3_unit270.mp3,RegPatterns/27d-ms_1_1_2_3_1_3_1_unit270.mp3,,,,,,,,,
,,,,,,,,,,,,,train23_audtrian1,2023-11-15_15h51.58.284,AudTraining1,2021.2.3,Win32,59.90176111,,,,,,,,,,,,,,RegPatterns/11-ms_2_2_3_1_1_3_unit250.mp3,0,0,0,0,0,1,,,,,,,,,,,,,,,,,,
,,,,,,,,,,,,,train23_audtrian1,2023-11-15_15h51.58.284,AudTraining1,2021.2.3,Win32,59.90176111,,,,,,,,,,,,,,RegPatterns/11-ms_2_2_3_1_1_3_unit250.mp3,0,1,0,1,0,1,,,,,,,,,,,,,,,,,,
,,,,,,,,,,,,,train23_audtrian1,2023-11-15_15h51.58.284,AudTraining1,2021.2.3,Win32,59.90176111,,,,,,,,,,,,,,RegPatterns/11d-ms_2_2_3_1_3_1_unit250.mp3,3,2,0,2,0,1,,,,,,,,,,,,,,,,,,
,,,,,,,,,,,,,train23_audtrian1,2023-11-15_15h51.58.284,AudTraining1,2021.2.3,Win32,59.90176111,,,,,,,,,,,,,,,,,,,,,3,0.4009,2,10,34,3,1,RegPatterns/11-ms_2_2_3_1_1_3_unit250.mp3,RegPatterns/11d-ms_2_2_3_1_3_1_unit250.mp3,,,,,,,,,
,,,,,,,,,,,,,train23_audtrian1,2023-11-15_15h51.58.284,AudTraining1,2021.2.3,Win32,59.90176111,,,,,,,,,,,,,,RegPatterns/21-ms_2_1_1_3_1_1_3_unit270.mp3,0,0,0,0,0,1,,,,,,,,,,,,,,,,,,
,,,,,,,,,,,,,train23_audtrian1,2023-11-15_15h51.58.284,AudTraining1,2021.2.3,Win32,59.90176111,,,,,,,,,,,,,,RegPatterns/21-ms_2_1_1_3_1_1_3_unit270.mp3,0,1,0,1,0,1,,,,,,,,,,,,,,,,,,
,,,,,,,,,,,,,train23_audtrian1,2023-11-15_15h51.58.284,AudTraining1,2021.2.3,Win32,59.90176111,,,,,,,,,,,,,,RegPatterns/21d-ms_2_1_1_3_1_3_1_unit270.mp3,3,2,0,2,0,1,,,,,,,,,,,,,,,,,,
,,,,,,,,,,,,,train23_audtrian1,2023-11-15_15h51.58.284,AudTraining1,2021.2.3,Win32,59.90176111,,,,,,,,,,,,,,,,,,,,,3,0.384,2,11,35,7,1,RegPatterns/21-ms_2_1_1_3_1_1_3_unit270.mp3,RegPatterns/21d-ms_2_1_1_3_1_3_1_unit270.mp3,,,,,,,,,
,,,,,,,,,,,,,train23_audtrian1,2023-11-15_15h51.58.284,AudTraining1,2021.2.3,Win32,59.90176111,,,,,,,,,,,,,,,,,,,,,,,,,,,,,,,,,,,,,space,2.5088
