key_resp.keys,key_resp.rt,key_resp_2.keys,key_resp_2.rt,key_resp_3.keys,key_resp_3.rt,trials.thisRepN,trials.thisTrialN,trials.thisN,trials.thisIndex,trials.ran,volstandard,voldeviant,participant,date,expName,psychopyVersion,OS,frameRate,key_resp_4.keys,key_resp_4.rt,key_resp_5.keys,key_resp_5.rt,trials_2.thisRepN,trials_2.thisTrialN,trials_2.thisN,trials_2.thisIndex,trials_2.ran,RegStandardPitch,RegDeviantPitch,key_resp_6.keys,key_resp_6.rt,RegAudSequence,diff-reg,trials_3.thisRepN,trials_3.thisTrialN,trials_3.thisN,trials_3.thisIndex,trials_3.ran,key_resp_7.keys,key_resp_7.rt,trials_5.thisRepN,trials_5.thisTrialN,trials_5.thisN,trials_5.thisIndex,trials_5.ran,standard,devient,key_resp_8.keys,key_resp_8.rt,trials_4.thisRepN,trials_4.thisTrialN,trials_4.thisN,trials_4.thisIndex,trials_4.ran,key_resp_9.keys,key_resp_9.rt
space,0.8516,space,1.6392,space,2.0491,0,0,0,0,1,RegPatterns/01-ms_2_2_4_1_3_unit230.mp3,RegPatterns/01d-ms_2_2_4_3_1_unit230.mp3,train15_audtrain2,2023-11-12_20h35.27.144,AudTraining2,2021.2.3,Win32,142.8571429,,,,,,,,,,,,,,,,,,,,,,,,,,,,,,,,,,,,,,
,,,,,,,,,,,,,train15_audtrain2,2023-11-12_20h35.27.144,AudTraining2,2021.2.3,Win32,142.8571429,space,2.2899,g,3.7133,0,0,0,0,1,RegPatterns/Noise.mp3,RegPatterns/Noise.mp3,,,,,,,,,,,,,,,,,,,,,,,,,,,
,,,,,,,,,,,,,train15_audtrain2,2023-11-12_20h35.27.144,AudTraining2,2021.2.3,Win32,142.8571429,,,,,,,,,,,,space,12.0877,RegPatterns/20d-ms_2_1_1_2_2_1_3_unit230.mp3,1,0,0,0,0,1,,,,,,,,,,,,,,,,,,
,,,,,,,,,,,,,train15_audtrain2,2023-11-12_20h35.27.144,AudTraining2,2021.2.3,Win32,142.8571429,,,,,,,,,,,,,,RegPatterns/20-ms_2_1_1_2_2_3_1_unit230.mp3,0,1,0,1,0,1,,,,,,,,,,,,,,,,,,
,,,,,,,,,,,,,train15_audtrain2,2023-11-12_20h35.27.144,AudTraining2,2021.2.3,Win32,142.8571429,,,,,,,,,,,,,,RegPatterns/20-ms_2_1_1_2_2_3_1_unit230.mp3,0,2,0,2,0,1,,,,,,,,,,,,,,,,,,
,,,,,,,,,,,,,train15_audtrain2,2023-11-12_20h35.27.144,AudTraining2,2021.2.3,Win32,142.8571429,,,,,,,,,,,,,,,,,,,,,1,0.6544,0,0,0,11,1,RegPatterns/20-ms_2_1_1_2_2_3_1_unit230.mp3,RegPatterns/20d-ms_2_1_1_2_2_1_3_unit230.mp3,,,,,,,,,
,,,,,,,,,,,,,train15_audtrain2,2023-11-12_20h35.27.144,AudTraining2,2021.2.3,Win32,142.8571429,,,,,,,,,,,,,,RegPatterns/03d-ms_1_3_4_2_2_unit270.mp3,1,0,0,0,0,1,,,,,,,,,,,,,,,,,,
,,,,,,,,,,,,,train15_audtrain2,2023-11-12_20h35.27.144,AudTraining2,2021.2.3,Win32,142.8571429,,,,,,,,,,,,,,RegPatterns/03-ms_3_1_4_2_2_unit270.mp3,0,1,0,1,0,1,,,,,,,,,,,,,,,,,,
,,,,,,,,,,,,,train15_audtrain2,2023-11-12_20h35.27.144,AudTraining2,2021.2.3,Win32,142.8571429,,,,,,,,,,,,,,RegPatterns/03-ms_3_1_4_2_2_unit270.mp3,0,2,0,2,0,1,,,,,,,,,,,,,,,,,,
,,,,,,,,,,,,,train15_audtrain2,2023-11-12_20h35.27.144,AudTraining2,2021.2.3,Win32,142.8571429,,,,,,,,,,,,,,,,,,,,,1,0.3075,0,1,1,1,1,RegPatterns/03-ms_3_1_4_2_2_unit270.mp3,RegPatterns/03d-ms_1_3_4_2_2_unit270.mp3,,,,,,,,,
,,,,,,,,,,,,,train15_audtrain2,2023-11-12_20h35.27.144,AudTraining2,2021.2.3,Win32,142.8571429,,,,,,,,,,,,,,RegPatterns/18-ms_4_2_2_1_1_2_unit270.mp3,0,0,0,0,0,1,,,,,,,,,,,,,,,,,,
,,,,,,,,,,,,,train15_audtrain2,2023-11-12_20h35.27.144,AudTraining2,2021.2.3,Win32,142.8571429,,,,,,,,,,,,,,RegPatterns/18d-ms_4_2_2_2_1_1_unit270.mp3,2,1,0,1,0,1,,,,,,,,,,,,,,,,,,
,,,,,,,,,,,,,train15_audtrain2,2023-11-12_20h35.27.144,AudTraining2,2021.2.3,Win32,142.8571429,,,,,,,,,,,,,,RegPatterns/18-ms_4_2_2_1_1_2_unit270.mp3,0,2,0,2,0,1,,,,,,,,,,,,,,,,,,
,,,,,,,,,,,,,train15_audtrain2,2023-11-12_20h35.27.144,AudTraining2,2021.2.3,Win32,142.8571429,,,,,,,,,,,,,,,,,,,,,1,0.4878,0,2,2,6,1,RegPatterns/18-ms_4_2_2_1_1_2_unit270.mp3,RegPatterns/18d-ms_4_2_2_2_1_1_unit270.mp3,,,,,,,,,
,,,,,,,,,,,,,train15_audtrain2,2023-11-12_20h35.27.144,AudTraining2,2021.2.3,Win32,142.8571429,,,,,,,,,,,,,,RegPatterns/12-ms_3_1_1_3_2_2_unit270.mp3,0,0,0,0,0,1,,,,,,,,,,,,,,,,,,
,,,,,,,,,,,,,train15_audtrain2,2023-11-12_20h35.27.144,AudTraining2,2021.2.3,Win32,142.8571429,,,,,,,,,,,,,,RegPatterns/12-ms_3_1_1_3_2_2_unit270.mp3,0,1,0,1,0,1,,,,,,,,,,,,,,,,,,
,,,,,,,,,,,,,train15_audtrain2,2023-11-12_20h35.27.144,AudTraining2,2021.2.3,Win32,142.8571429,,,,,,,,,,,,,,RegPatterns/12d-ms_3_1_3_1_2_2_unit270.mp3,3,2,0,2,0,1,,,,,,,,,,,,,,,,,,
,,,,,,,,,,,,,train15_audtrain2,2023-11-12_20h35.27.144,AudTraining2,2021.2.3,Win32,142.8571429,,,,,,,,,,,,,,,,,,,,,1,0.4747,0,3,3,3,1,RegPatterns/12-ms_3_1_1_3_2_2_unit270.mp3,RegPatterns/12d-ms_3_1_3_1_2_2_unit270.mp3,,,,,,,,,
,,,,,,,,,,,,,train15_audtrain2,2023-11-12_20h35.27.144,AudTraining2,2021.2.3,Win32,142.8571429,,,,,,,,,,,,,,RegPatterns/02-ms_3_1_4_1_3_unit250.mp3,0,0,0,0,0,1,,,,,,,,,,,,,,,,,,
,,,,,,,,,,,,,train15_audtrain2,2023-11-12_20h35.27.144,AudTraining2,2021.2.3,Win32,142.8571429,,,,,,,,,,,,,,RegPatterns/02-ms_3_1_4_1_3_unit250.mp3,0,1,0,1,0,1,,,,,,,,,,,,,,,,,,
,,,,,,,,,,,,,train15_audtrain2,2023-11-12_20h35.27.144,AudTraining2,2021.2.3,Win32,142.8571429,,,,,,,,,,,,,,RegPatterns/02d-ms_3_1_4_3_1_unit250.mp3,3,2,0,2,0,1,,,,,,,,,,,,,,,,,,
,,,,,,,,,,,,,train15_audtrain2,2023-11-12_20h35.27.144,AudTraining2,2021.2.3,Win32,142.8571429,,,,,,,,,,,,,,,,,,,,,3,0.2805,0,4,4,0,1,RegPatterns/02-ms_3_1_4_1_3_unit250.mp3,RegPatterns/02d-ms_3_1_4_3_1_unit250.mp3,,,,,,,,,
,,,,,,,,,,,,,train15_audtrain2,2023-11-12_20h35.27.144,AudTraining2,2021.2.3,Win32,142.8571429,,,,,,,,,,,,,,RegPatterns/26d-ms_1_1_2_1_1_2_4_unit250.mp3,1,0,0,0,0,1,,,,,,,,,,,,,,,,,,
,,,,,,,,,,,,,train15_audtrain2,2023-11-12_20h35.27.144,AudTraining2,2021.2.3,Win32,142.8571429,,,,,,,,,,,,,,RegPatterns/26-ms_1_1_2_2_1_1_4_unit250.mp3,0,1,0,1,0,1,,,,,,,,,,,,,,,,,,
,,,,,,,,,,,,,train15_audtrain2,2023-11-12_20h35.27.144,AudTraining2,2021.2.3,Win32,142.8571429,,,,,,,,,,,,,,RegPatterns/26-ms_1_1_2_2_1_1_4_unit250.mp3,0,2,0,2,0,1,,,,,,,,,,,,,,,,,,
,,,,,,,,,,,,,train15_audtrain2,2023-11-12_20h35.27.144,AudTraining2,2021.2.3,Win32,142.8571429,,,,,,,,,,,,,,,,,,,,,1,0.3209,0,5,5,8,1,RegPatterns/26-ms_1_1_2_2_1_1_4_unit250.mp3,RegPatterns/26d-ms_1_1_2_1_1_2_4_unit250.mp3,,,,,,,,,
,,,,,,,,,,,,,train15_audtrain2,2023-11-12_20h35.27.144,AudTraining2,2021.2.3,Win32,142.8571429,,,,,,,,,,,,,,RegPatterns/29-ms_3_1_2_1_1_1_3_unit250.mp3,0,0,0,0,0,1,,,,,,,,,,,,,,,,,,
,,,,,,,,,,,,,train15_audtrain2,2023-11-12_20h35.27.144,AudTraining2,2021.2.3,Win32,142.8571429,,,,,,,,,,,,,,RegPatterns/29d-ms_3_1_2_1_1_3_1_unit250.mp3,2,1,0,1,0,1,,,,,,,,,,,,,,,,,,
,,,,,,,,,,,,,train15_audtrain2,2023-11-12_20h35.27.144,AudTraining2,2021.2.3,Win32,142.8571429,,,,,,,,,,,,,,RegPatterns/29-ms_3_1_2_1_1_1_3_unit250.mp3,0,2,0,2,0,1,,,,,,,,,,,,,,,,,,
,,,,,,,,,,,,,train15_audtrain2,2023-11-12_20h35.27.144,AudTraining2,2021.2.3,Win32,142.8571429,,,,,,,,,,,,,,,,,,,,,1,0.3288,0,6,6,9,1,RegPatterns/29-ms_3_1_2_1_1_1_3_unit250.mp3,RegPatterns/29d-ms_3_1_2_1_1_3_1_unit250.mp3,,,,,,,,,
,,,,,,,,,,,,,train15_audtrain2,2023-11-12_20h35.27.144,AudTraining2,2021.2.3,Win32,142.8571429,,,,,,,,,,,,,,RegPatterns/16-ms_3_1_2_2_1_3_unit230.mp3,0,0,0,0,0,1,,,,,,,,,,,,,,,,,,
,,,,,,,,,,,,,train15_audtrain2,2023-11-12_20h35.27.144,AudTraining2,2021.2.3,Win32,142.8571429,,,,,,,,,,,,,,RegPatterns/16-ms_3_1_2_2_1_3_unit230.mp3,0,1,0,1,0,1,,,,,,,,,,,,,,,,,,
,,,,,,,,,,,,,train15_audtrain2,2023-11-12_20h35.27.144,AudTraining2,2021.2.3,Win32,142.8571429,,,,,,,,,,,,,,RegPatterns/16d-ms_3_1_2_2_3_1_unit230.mp3,3,2,0,2,0,1,,,,,,,,,,,,,,,,,,
,,,,,,,,,,,,,train15_audtrain2,2023-11-12_20h35.27.144,AudTraining2,2021.2.3,Win32,142.8571429,,,,,,,,,,,,,,,,,,,,,1,0.3698,0,7,7,5,1,RegPatterns/16-ms_3_1_2_2_1_3_unit230.mp3,RegPatterns/16d-ms_3_1_2_2_3_1_unit230.mp3,,,,,,,,,
,,,,,,,,,,,,,train15_audtrain2,2023-11-12_20h35.27.144,AudTraining2,2021.2.3,Win32,142.8571429,,,,,,,,,,,,,,RegPatterns/09d-ms_2_1_1_3_1_4_unit270.mp3,1,0,0,0,0,1,,,,,,,,,,,,,,,,,,
,,,,,,,,,,,,,train15_audtrain2,2023-11-12_20h35.27.144,AudTraining2,2021.2.3,Win32,142.8571429,,,,,,,,,,,,,,RegPatterns/09-ms_2_1_1_1_3_4_unit270.mp3,0,1,0,1,0,1,,,,,,,,,,,,,,,,,,
,,,,,,,,,,,,,train15_audtrain2,2023-11-12_20h35.27.144,AudTraining2,2021.2.3,Win32,142.8571429,,,,,,,,,,,,,,RegPatterns/09-ms_2_1_1_1_3_4_unit270.mp3,0,2,0,2,0,1,,,,,,,,,,,,,,,,,,
,,,,,,,,,,,,,train15_audtrain2,2023-11-12_20h35.27.144,AudTraining2,2021.2.3,Win32,142.8571429,,,,,,,,,,,,,,,,,,,,,1,2.0226,0,8,8,2,1,RegPatterns/09-ms_2_1_1_1_3_4_unit270.mp3,RegPatterns/09d-ms_2_1_1_3_1_4_unit270.mp3,,,,,,,,,
,,,,,,,,,,,,,train15_audtrain2,2023-11-12_20h35.27.144,AudTraining2,2021.2.3,Win32,142.8571429,,,,,,,,,,,,,,RegPatterns/14d-ms_2_1_1_4_3_1_unit250.mp3,1,0,0,0,0,1,,,,,,,,,,,,,,,,,,
,,,,,,,,,,,,,train15_audtrain2,2023-11-12_20h35.27.144,AudTraining2,2021.2.3,Win32,142.8571429,,,,,,,,,,,,,,RegPatterns/14-ms_2_1_1_4_1_3_unit250.mp3,0,1,0,1,0,1,,,,,,,,,,,,,,,,,,
,,,,,,,,,,,,,train15_audtrain2,2023-11-12_20h35.27.144,AudTraining2,2021.2.3,Win32,142.8571429,,,,,,,,,,,,,,RegPatterns/14-ms_2_1_1_4_1_3_unit250.mp3,0,2,0,2,0,1,,,,,,,,,,,,,,,,,,
,,,,,,,,,,,,,train15_audtrain2,2023-11-12_20h35.27.144,AudTraining2,2021.2.3,Win32,142.8571429,,,,,,,,,,,,,,,,,,,,,3,0.9186,0,9,9,4,1,RegPatterns/14-ms_2_1_1_4_1_3_unit250.mp3,RegPatterns/14d-ms_2_1_1_4_3_1_unit250.mp3,,,,,,,,,
,,,,,,,,,,,,,train15_audtrain2,2023-11-12_20h35.27.144,AudTraining2,2021.2.3,Win32,142.8571429,,,,,,,,,,,,,,RegPatterns/19-ms_1_1_2_3_1_2_2_unit230.mp3,0,0,0,0,0,1,,,,,,,,,,,,,,,,,,
,,,,,,,,,,,,,train15_audtrain2,2023-11-12_20h35.27.144,AudTraining2,2021.2.3,Win32,142.8571429,,,,,,,,,,,,,,RegPatterns/19d-ms_1_1_2_1_3_2_2_unit230.mp3,2,1,0,1,0,1,,,,,,,,,,,,,,,,,,
,,,,,,,,,,,,,train15_audtrain2,2023-11-12_20h35.27.144,AudTraining2,2021.2.3,Win32,142.8571429,,,,,,,,,,,,,,RegPatterns/19-ms_1_1_2_3_1_2_2_unit230.mp3,0,2,0,2,0,1,,,,,,,,,,,,,,,,,,
,,,,,,,,,,,,,train15_audtrain2,2023-11-12_20h35.27.144,AudTraining2,2021.2.3,Win32,142.8571429,,,,,,,,,,RegPatterns/Noise.mp3,RegPatterns/Noise.mp3,,,,,,,,,,1,0.273,,,,,,,,g,1.2445,0,0,0,0,1,,
,,,,,,,,,,,,,train15_audtrain2,2023-11-12_20h35.27.144,AudTraining2,2021.2.3,Win32,142.8571429,,,,,,,,,,,,,,,,,,,,,,,0,10,10,7,1,RegPatterns/19-ms_1_1_2_3_1_2_2_unit230.mp3,RegPatterns/19d-ms_1_1_2_1_3_2_2_unit230.mp3,,,,,,,,,
,,,,,,,,,,,,,train15_audtrain2,2023-11-12_20h35.27.144,AudTraining2,2021.2.3,Win32,142.8571429,,,,,,,,,,,,,,RegPatterns/30-ms_3_1_2_2_1_1_2_unit230.mp3,0,0,0,0,0,1,,,,,,,,,,,,,,,,,,
,,,,,,,,,,,,,train15_audtrain2,2023-11-12_20h35.27.144,AudTraining2,2021.2.3,Win32,142.8571429,,,,,,,,,,,,,,RegPatterns/30-ms_3_1_2_2_1_1_2_unit230.mp3,0,1,0,1,0,1,,,,,,,,,,,,,,,,,,
,,,,,,,,,,,,,train15_audtrain2,2023-11-12_20h35.27.144,AudTraining2,2021.2.3,Win32,142.8571429,,,,,,,,,,,,,,RegPatterns/30d-ms_1_3_2_2_1_1_2_unit230.mp3,3,2,0,2,0,1,,,,,,,,,,,,,,,,,,
,,,,,,,,,,,,,train15_audtrain2,2023-11-12_20h35.27.144,AudTraining2,2021.2.3,Win32,142.8571429,,,,,,,,,,,,,,,,,,,,,3,0.2445,0,11,11,10,1,RegPatterns/30-ms_3_1_2_2_1_1_2_unit230.mp3,RegPatterns/30d-ms_1_3_2_2_1_1_2_unit230.mp3,,,,,,,,,
,,,,,,,,,,,,,train15_audtrain2,2023-11-12_20h35.27.144,AudTraining2,2021.2.3,Win32,142.8571429,,,,,,,,,,,,,,RegPatterns/09-ms_2_1_1_1_3_4_unit270.mp3,0,0,0,0,0,1,,,,,,,,,,,,,,,,,,
,,,,,,,,,,,,,train15_audtrain2,2023-11-12_20h35.27.144,AudTraining2,2021.2.3,Win32,142.8571429,,,,,,,,,,,,,,RegPatterns/09d-ms_2_1_1_3_1_4_unit270.mp3,2,1,0,1,0,1,,,,,,,,,,,,,,,,,,
,,,,,,,,,,,,,train15_audtrain2,2023-11-12_20h35.27.144,AudTraining2,2021.2.3,Win32,142.8571429,,,,,,,,,,,,,,RegPatterns/09-ms_2_1_1_1_3_4_unit270.mp3,0,2,0,2,0,1,,,,,,,,,,,,,,,,,,
,,,,,,,,,,,,,train15_audtrain2,2023-11-12_20h35.27.144,AudTraining2,2021.2.3,Win32,142.8571429,,,,,,,,,,,,,,,,,,,,,1,0.1418,1,0,12,2,1,RegPatterns/09-ms_2_1_1_1_3_4_unit270.mp3,RegPatterns/09d-ms_2_1_1_3_1_4_unit270.mp3,,,,,,,,,
,,,,,,,,,,,,,train15_audtrain2,2023-11-12_20h35.27.144,AudTraining2,2021.2.3,Win32,142.8571429,,,,,,,,,,,,,,RegPatterns/29d-ms_3_1_2_1_1_3_1_unit250.mp3,1,0,0,0,0,1,,,,,,,,,,,,,,,,,,
,,,,,,,,,,,,,train15_audtrain2,2023-11-12_20h35.27.144,AudTraining2,2021.2.3,Win32,142.8571429,,,,,,,,,,,,,,RegPatterns/29-ms_3_1_2_1_1_1_3_unit250.mp3,0,1,0,1,0,1,,,,,,,,,,,,,,,,,,
,,,,,,,,,,,,,train15_audtrain2,2023-11-12_20h35.27.144,AudTraining2,2021.2.3,Win32,142.8571429,,,,,,,,,,,,,,RegPatterns/29-ms_3_1_2_1_1_1_3_unit250.mp3,0,2,0,2,0,1,,,,,,,,,,,,,,,,,,
,,,,,,,,,,,,,train15_audtrain2,2023-11-12_20h35.27.144,AudTraining2,2021.2.3,Win32,142.8571429,,,,,,,,,,,,,,,,,,,,,1,0.1964,1,1,13,9,1,RegPatterns/29-ms_3_1_2_1_1_1_3_unit250.mp3,RegPatterns/29d-ms_3_1_2_1_1_3_1_unit250.mp3,,,,,,,,,
,,,,,,,,,,,,,train15_audtrain2,2023-11-12_20h35.27.144,AudTraining2,2021.2.3,Win32,142.8571429,,,,,,,,,,,,,,RegPatterns/26-ms_1_1_2_2_1_1_4_unit250.mp3,0,0,0,0,0,1,,,,,,,,,,,,,,,,,,
,,,,,,,,,,,,,train15_audtrain2,2023-11-12_20h35.27.144,AudTraining2,2021.2.3,Win32,142.8571429,,,,,,,,,,,,,,RegPatterns/26-ms_1_1_2_2_1_1_4_unit250.mp3,0,1,0,1,0,1,,,,,,,,,,,,,,,,,,
,,,,,,,,,,,,,train15_audtrain2,2023-11-12_20h35.27.144,AudTraining2,2021.2.3,Win32,142.8571429,,,,,,,,,,,,,,RegPatterns/26d-ms_1_1_2_1_1_2_4_unit250.mp3,3,2,0,2,0,1,,,,,,,,,,,,,,,,,,
,,,,,,,,,,,,,train15_audtrain2,2023-11-12_20h35.27.144,AudTraining2,2021.2.3,Win32,142.8571429,,,,,,,,,,,,,,,,,,,,,2,0.6833,1,2,14,8,1,RegPatterns/26-ms_1_1_2_2_1_1_4_unit250.mp3,RegPatterns/26d-ms_1_1_2_1_1_2_4_unit250.mp3,,,,,,,,,
,,,,,,,,,,,,,train15_audtrain2,2023-11-12_20h35.27.144,AudTraining2,2021.2.3,Win32,142.8571429,,,,,,,,,,,,,,RegPatterns/16d-ms_3_1_2_2_3_1_unit230.mp3,1,0,0,0,0,1,,,,,,,,,,,,,,,,,,
,,,,,,,,,,,,,train15_audtrain2,2023-11-12_20h35.27.144,AudTraining2,2021.2.3,Win32,142.8571429,,,,,,,,,,,,,,RegPatterns/16-ms_3_1_2_2_1_3_unit230.mp3,0,1,0,1,0,1,,,,,,,,,,,,,,,,,,
,,,,,,,,,,,,,train15_audtrain2,2023-11-12_20h35.27.144,AudTraining2,2021.2.3,Win32,142.8571429,,,,,,,,,,,,,,RegPatterns/16-ms_3_1_2_2_1_3_unit230.mp3,0,2,0,2,0,1,,,,,,,,,,,,,,,,,,
,,,,,,,,,,,,,train15_audtrain2,2023-11-12_20h35.27.144,AudTraining2,2021.2.3,Win32,142.8571429,,,,,,,,,,,,,,,,,,,,,3,0.2321,1,3,15,5,1,RegPatterns/16-ms_3_1_2_2_1_3_unit230.mp3,RegPatterns/16d-ms_3_1_2_2_3_1_unit230.mp3,,,,,,,,,
,,,,,,,,,,,,,train15_audtrain2,2023-11-12_20h35.27.144,AudTraining2,2021.2.3,Win32,142.8571429,,,,,,,,,,,,,,RegPatterns/14-ms_2_1_1_4_1_3_unit250.mp3,0,0,0,0,0,1,,,,,,,,,,,,,,,,,,
,,,,,,,,,,,,,train15_audtrain2,2023-11-12_20h35.27.144,AudTraining2,2021.2.3,Win32,142.8571429,,,,,,,,,,,,,,RegPatterns/14d-ms_2_1_1_4_3_1_unit250.mp3,2,1,0,1,0,1,,,,,,,,,,,,,,,,,,
,,,,,,,,,,,,,train15_audtrain2,2023-11-12_20h35.27.144,AudTraining2,2021.2.3,Win32,142.8571429,,,,,,,,,,,,,,RegPatterns/14-ms_2_1_1_4_1_3_unit250.mp3,0,2,0,2,0,1,,,,,,,,,,,,,,,,,,
,,,,,,,,,,,,,train15_audtrain2,2023-11-12_20h35.27.144,AudTraining2,2021.2.3,Win32,142.8571429,,,,,,,,,,,,,,,,,,,,,2,0.0353,1,4,16,4,1,RegPatterns/14-ms_2_1_1_4_1_3_unit250.mp3,RegPatterns/14d-ms_2_1_1_4_3_1_unit250.mp3,,,,,,,,,
,,,,,,,,,,,,,train15_audtrain2,2023-11-12_20h35.27.144,AudTraining2,2021.2.3,Win32,142.8571429,,,,,,,,,,,,,,RegPatterns/18d-ms_4_2_2_2_1_1_unit270.mp3,1,0,0,0,0,1,,,,,,,,,,,,,,,,,,
,,,,,,,,,,,,,train15_audtrain2,2023-11-12_20h35.27.144,AudTraining2,2021.2.3,Win32,142.8571429,,,,,,,,,,,,,,RegPatterns/18-ms_4_2_2_1_1_2_unit270.mp3,0,1,0,1,0,1,,,,,,,,,,,,,,,,,,
,,,,,,,,,,,,,train15_audtrain2,2023-11-12_20h35.27.144,AudTraining2,2021.2.3,Win32,142.8571429,,,,,,,,,,,,,,RegPatterns/18-ms_4_2_2_1_1_2_unit270.mp3,0,2,0,2,0,1,,,,,,,,,,,,,,,,,,
,,,,,,,,,,,,,train15_audtrain2,2023-11-12_20h35.27.144,AudTraining2,2021.2.3,Win32,142.8571429,,,,,,,,,,,,,,,,,,,,,2,1.5373,1,5,17,6,1,RegPatterns/18-ms_4_2_2_1_1_2_unit270.mp3,RegPatterns/18d-ms_4_2_2_2_1_1_unit270.mp3,,,,,,,,,
,,,,,,,,,,,,,train15_audtrain2,2023-11-12_20h35.27.144,AudTraining2,2021.2.3,Win32,142.8571429,,,,,,,,,,,,,,RegPatterns/19d-ms_1_1_2_1_3_2_2_unit230.mp3,1,0,0,0,0,1,,,,,,,,,,,,,,,,,,
,,,,,,,,,,,,,train15_audtrain2,2023-11-12_20h35.27.144,AudTraining2,2021.2.3,Win32,142.8571429,,,,,,,,,,,,,,RegPatterns/19-ms_1_1_2_3_1_2_2_unit230.mp3,0,1,0,1,0,1,,,,,,,,,,,,,,,,,,
,,,,,,,,,,,,,train15_audtrain2,2023-11-12_20h35.27.144,AudTraining2,2021.2.3,Win32,142.8571429,,,,,,,,,,,,,,RegPatterns/19-ms_1_1_2_3_1_2_2_unit230.mp3,0,2,0,2,0,1,,,,,,,,,,,,,,,,,,
,,,,,,,,,,,,,train15_audtrain2,2023-11-12_20h35.27.144,AudTraining2,2021.2.3,Win32,142.8571429,,,,,,,,,,,,,,,,,,,,,1,0.2575,1,6,18,7,1,RegPatterns/19-ms_1_1_2_3_1_2_2_unit230.mp3,RegPatterns/19d-ms_1_1_2_1_3_2_2_unit230.mp3,,,,,,,,,
,,,,,,,,,,,,,train15_audtrain2,2023-11-12_20h35.27.144,AudTraining2,2021.2.3,Win32,142.8571429,,,,,,,,,,,,,,RegPatterns/20-ms_2_1_1_2_2_3_1_unit230.mp3,0,0,0,0,0,1,,,,,,,,,,,,,,,,,,
,,,,,,,,,,,,,train15_audtrain2,2023-11-12_20h35.27.144,AudTraining2,2021.2.3,Win32,142.8571429,,,,,,,,,,,,,,RegPatterns/20d-ms_2_1_1_2_2_1_3_unit230.mp3,2,1,0,1,0,1,,,,,,,,,,,,,,,,,,
,,,,,,,,,,,,,train15_audtrain2,2023-11-12_20h35.27.144,AudTraining2,2021.2.3,Win32,142.8571429,,,,,,,,,,,,,,RegPatterns/20-ms_2_1_1_2_2_3_1_unit230.mp3,0,2,0,2,0,1,,,,,,,,,,,,,,,,,,
,,,,,,,,,,,,,train15_audtrain2,2023-11-12_20h35.27.144,AudTraining2,2021.2.3,Win32,142.8571429,,,,,,,,,,,,,,,,,,,,,1,1.4389,1,7,19,11,1,RegPatterns/20-ms_2_1_1_2_2_3_1_unit230.mp3,RegPatterns/20d-ms_2_1_1_2_2_1_3_unit230.mp3,,,,,,,,,
,,,,,,,,,,,,,train15_audtrain2,2023-11-12_20h35.27.144,AudTraining2,2021.2.3,Win32,142.8571429,,,,,,,,,,,,,,RegPatterns/03-ms_3_1_4_2_2_unit270.mp3,0,0,0,0,0,1,,,,,,,,,,,,,,,,,,
,,,,,,,,,,,,,train15_audtrain2,2023-11-12_20h35.27.144,AudTraining2,2021.2.3,Win32,142.8571429,,,,,,,,,,,,,,RegPatterns/03-ms_3_1_4_2_2_unit270.mp3,0,1,0,1,0,1,,,,,,,,,,,,,,,,,,
,,,,,,,,,,,,,train15_audtrain2,2023-11-12_20h35.27.144,AudTraining2,2021.2.3,Win32,142.8571429,,,,,,,,,,,,,,RegPatterns/03d-ms_1_3_4_2_2_unit270.mp3,3,2,0,2,0,1,,,,,,,,,,,,,,,,,,
,,,,,,,,,,,,,train15_audtrain2,2023-11-12_20h35.27.144,AudTraining2,2021.2.3,Win32,142.8571429,,,,,,,,,,,,,,,,,,,,,1,0.6402,1,8,20,1,1,RegPatterns/03-ms_3_1_4_2_2_unit270.mp3,RegPatterns/03d-ms_1_3_4_2_2_unit270.mp3,,,,,,,,,
,,,,,,,,,,,,,train15_audtrain2,2023-11-12_20h35.27.144,AudTraining2,2021.2.3,Win32,142.8571429,,,,,,,,,,,,,,RegPatterns/30-ms_3_1_2_2_1_1_2_unit230.mp3,0,0,0,0,0,1,,,,,,,,,,,,,,,,,,
,,,,,,,,,,,,,train15_audtrain2,2023-11-12_20h35.27.144,AudTraining2,2021.2.3,Win32,142.8571429,,,,,,,,,,,,,,RegPatterns/30d-ms_1_3_2_2_1_1_2_unit230.mp3,2,1,0,1,0,1,,,,,,,,,,,,,,,,,,
,,,,,,,,,,,,,train15_audtrain2,2023-11-12_20h35.27.144,AudTraining2,2021.2.3,Win32,142.8571429,,,,,,,,,,,,,,RegPatterns/30-ms_3_1_2_2_1_1_2_unit230.mp3,0,2,0,2,0,1,,,,,,,,,,,,,,,,,,
,,,,,,,,,,,,,train15_audtrain2,2023-11-12_20h35.27.144,AudTraining2,2021.2.3,Win32,142.8571429,,,,,,,,,,,,,,,,,,,,,3,0.5917,1,9,21,10,1,RegPatterns/30-ms_3_1_2_2_1_1_2_unit230.mp3,RegPatterns/30d-ms_1_3_2_2_1_1_2_unit230.mp3,,,,,,,,,
,,,,,,,,,,,,,train15_audtrain2,2023-11-12_20h35.27.144,AudTraining2,2021.2.3,Win32,142.8571429,,,,,,,,,,,,,,RegPatterns/12-ms_3_1_1_3_2_2_unit270.mp3,0,0,0,0,0,1,,,,,,,,,,,,,,,,,,
,,,,,,,,,,,,,train15_audtrain2,2023-11-12_20h35.27.144,AudTraining2,2021.2.3,Win32,142.8571429,,,,,,,,,,,,,,RegPatterns/12d-ms_3_1_3_1_2_2_unit270.mp3,2,1,0,1,0,1,,,,,,,,,,,,,,,,,,
,,,,,,,,,,,,,train15_audtrain2,2023-11-12_20h35.27.144,AudTraining2,2021.2.3,Win32,142.8571429,,,,,,,,,,,,,,RegPatterns/12-ms_3_1_1_3_2_2_unit270.mp3,0,2,0,2,0,1,,,,,,,,,,,,,,,,,,
,,,,,,,,,,,,,train15_audtrain2,2023-11-12_20h35.27.144,AudTraining2,2021.2.3,Win32,142.8571429,,,,,,,,,,RegPatterns/Noise.mp3,RegPatterns/Noise.mp3,,,,,,,,,,2,0.0992,,,,,,,,g,1.4939,0,0,0,0,1,,
,,,,,,,,,,,,,train15_audtrain2,2023-11-12_20h35.27.144,AudTraining2,2021.2.3,Win32,142.8571429,,,,,,,,,,,,,,,,,,,,,,,1,10,22,3,1,RegPatterns/12-ms_3_1_1_3_2_2_unit270.mp3,RegPatterns/12d-ms_3_1_3_1_2_2_unit270.mp3,,,,,,,,,
,,,,,,,,,,,,,train15_audtrain2,2023-11-12_20h35.27.144,AudTraining2,2021.2.3,Win32,142.8571429,,,,,,,,,,,,,,RegPatterns/02d-ms_3_1_4_3_1_unit250.mp3,1,0,0,0,0,1,,,,,,,,,,,,,,,,,,
,,,,,,,,,,,,,train15_audtrain2,2023-11-12_20h35.27.144,AudTraining2,2021.2.3,Win32,142.8571429,,,,,,,,,,,,,,RegPatterns/02-ms_3_1_4_1_3_unit250.mp3,0,1,0,1,0,1,,,,,,,,,,,,,,,,,,
,,,,,,,,,,,,,train15_audtrain2,2023-11-12_20h35.27.144,AudTraining2,2021.2.3,Win32,142.8571429,,,,,,,,,,,,,,RegPatterns/02-ms_3_1_4_1_3_unit250.mp3,0,2,0,2,0,1,,,,,,,,,,,,,,,,,,
,,,,,,,,,,,,,train15_audtrain2,2023-11-12_20h35.27.144,AudTraining2,2021.2.3,Win32,142.8571429,,,,,,,,,,,,,,,,,,,,,3,2.7316,1,11,23,0,1,RegPatterns/02-ms_3_1_4_1_3_unit250.mp3,RegPatterns/02d-ms_3_1_4_3_1_unit250.mp3,,,,,,,,,
,,,,,,,,,,,,,train15_audtrain2,2023-11-12_20h35.27.144,AudTraining2,2021.2.3,Win32,142.8571429,,,,,,,,,,,,,,RegPatterns/03-ms_3_1_4_2_2_unit270.mp3,0,0,0,0,0,1,,,,,,,,,,,,,,,,,,
,,,,,,,,,,,,,train15_audtrain2,2023-11-12_20h35.27.144,AudTraining2,2021.2.3,Win32,142.8571429,,,,,,,,,,,,,,RegPatterns/03d-ms_1_3_4_2_2_unit270.mp3,2,1,0,1,0,1,,,,,,,,,,,,,,,,,,
,,,,,,,,,,,,,train15_audtrain2,2023-11-12_20h35.27.144,AudTraining2,2021.2.3,Win32,142.8571429,,,,,,,,,,,,,,RegPatterns/03-ms_3_1_4_2_2_unit270.mp3,0,2,0,2,0,1,,,,,,,,,,,,,,,,,,
,,,,,,,,,,,,,train15_audtrain2,2023-11-12_20h35.27.144,AudTraining2,2021.2.3,Win32,142.8571429,,,,,,,,,,,,,,,,,,,,,2,0.0073,2,0,24,1,1,RegPatterns/03-ms_3_1_4_2_2_unit270.mp3,RegPatterns/03d-ms_1_3_4_2_2_unit270.mp3,,,,,,,,,
,,,,,,,,,,,,,train15_audtrain2,2023-11-12_20h35.27.144,AudTraining2,2021.2.3,Win32,142.8571429,,,,,,,,,,,,,,RegPatterns/19-ms_1_1_2_3_1_2_2_unit230.mp3,0,0,0,0,0,1,,,,,,,,,,,,,,,,,,
,,,,,,,,,,,,,train15_audtrain2,2023-11-12_20h35.27.144,AudTraining2,2021.2.3,Win32,142.8571429,,,,,,,,,,,,,,RegPatterns/19-ms_1_1_2_3_1_2_2_unit230.mp3,0,1,0,1,0,1,,,,,,,,,,,,,,,,,,
,,,,,,,,,,,,,train15_audtrain2,2023-11-12_20h35.27.144,AudTraining2,2021.2.3,Win32,142.8571429,,,,,,,,,,,,,,RegPatterns/19d-ms_1_1_2_1_3_2_2_unit230.mp3,3,2,0,2,0,1,,,,,,,,,,,,,,,,,,
,,,,,,,,,,,,,train15_audtrain2,2023-11-12_20h35.27.144,AudTraining2,2021.2.3,Win32,142.8571429,,,,,,,,,,,,,,,,,,,,,3,0.256,2,1,25,7,1,RegPatterns/19-ms_1_1_2_3_1_2_2_unit230.mp3,RegPatterns/19d-ms_1_1_2_1_3_2_2_unit230.mp3,,,,,,,,,
,,,,,,,,,,,,,train15_audtrain2,2023-11-12_20h35.27.144,AudTraining2,2021.2.3,Win32,142.8571429,,,,,,,,,,,,,,RegPatterns/29-ms_3_1_2_1_1_1_3_unit250.mp3,0,0,0,0,0,1,,,,,,,,,,,,,,,,,,
,,,,,,,,,,,,,train15_audtrain2,2023-11-12_20h35.27.144,AudTraining2,2021.2.3,Win32,142.8571429,,,,,,,,,,,,,,RegPatterns/29-ms_3_1_2_1_1_1_3_unit250.mp3,0,1,0,1,0,1,,,,,,,,,,,,,,,,,,
,,,,,,,,,,,,,train15_audtrain2,2023-11-12_20h35.27.144,AudTraining2,2021.2.3,Win32,142.8571429,,,,,,,,,,,,,,RegPatterns/29d-ms_3_1_2_1_1_3_1_unit250.mp3,3,2,0,2,0,1,,,,,,,,,,,,,,,,,,
,,,,,,,,,,,,,train15_audtrain2,2023-11-12_20h35.27.144,AudTraining2,2021.2.3,Win32,142.8571429,,,,,,,,,,,,,,,,,,,,,2,0.1746,2,2,26,9,1,RegPatterns/29-ms_3_1_2_1_1_1_3_unit250.mp3,RegPatterns/29d-ms_3_1_2_1_1_3_1_unit250.mp3,,,,,,,,,
,,,,,,,,,,,,,train15_audtrain2,2023-11-12_20h35.27.144,AudTraining2,2021.2.3,Win32,142.8571429,,,,,,,,,,,,,,RegPatterns/09-ms_2_1_1_1_3_4_unit270.mp3,0,0,0,0,0,1,,,,,,,,,,,,,,,,,,
,,,,,,,,,,,,,train15_audtrain2,2023-11-12_20h35.27.144,AudTraining2,2021.2.3,Win32,142.8571429,,,,,,,,,,,,,,RegPatterns/09-ms_2_1_1_1_3_4_unit270.mp3,0,1,0,1,0,1,,,,,,,,,,,,,,,,,,
,,,,,,,,,,,,,train15_audtrain2,2023-11-12_20h35.27.144,AudTraining2,2021.2.3,Win32,142.8571429,,,,,,,,,,,,,,RegPatterns/09d-ms_2_1_1_3_1_4_unit270.mp3,3,2,0,2,0,1,,,,,,,,,,,,,,,,,,
,,,,,,,,,,,,,train15_audtrain2,2023-11-12_20h35.27.144,AudTraining2,2021.2.3,Win32,142.8571429,,,,,,,,,,,,,,,,,,,,,3,0.6331,2,3,27,2,1,RegPatterns/09-ms_2_1_1_1_3_4_unit270.mp3,RegPatterns/09d-ms_2_1_1_3_1_4_unit270.mp3,,,,,,,,,
,,,,,,,,,,,,,train15_audtrain2,2023-11-12_20h35.27.144,AudTraining2,2021.2.3,Win32,142.8571429,,,,,,,,,,,,,,RegPatterns/12d-ms_3_1_3_1_2_2_unit270.mp3,1,0,0,0,0,1,,,,,,,,,,,,,,,,,,
,,,,,,,,,,,,,train15_audtrain2,2023-11-12_20h35.27.144,AudTraining2,2021.2.3,Win32,142.8571429,,,,,,,,,,,,,,RegPatterns/12-ms_3_1_1_3_2_2_unit270.mp3,0,1,0,1,0,1,,,,,,,,,,,,,,,,,,
,,,,,,,,,,,,,train15_audtrain2,2023-11-12_20h35.27.144,AudTraining2,2021.2.3,Win32,142.8571429,,,,,,,,,,,,,,RegPatterns/12-ms_3_1_1_3_2_2_unit270.mp3,0,2,0,2,0,1,,,,,,,,,,,,,,,,,,
,,,,,,,,,,,,,train15_audtrain2,2023-11-12_20h35.27.144,AudTraining2,2021.2.3,Win32,142.8571429,,,,,,,,,,,,,,,,,,,,,3,0.8822,2,4,28,3,1,RegPatterns/12-ms_3_1_1_3_2_2_unit270.mp3,RegPatterns/12d-ms_3_1_3_1_2_2_unit270.mp3,,,,,,,,,
,,,,,,,,,,,,,train15_audtrain2,2023-11-12_20h35.27.144,AudTraining2,2021.2.3,Win32,142.8571429,,,,,,,,,,,,,,RegPatterns/26-ms_1_1_2_2_1_1_4_unit250.mp3,0,0,0,0,0,1,,,,,,,,,,,,,,,,,,
,,,,,,,,,,,,,train15_audtrain2,2023-11-12_20h35.27.144,AudTraining2,2021.2.3,Win32,142.8571429,,,,,,,,,,,,,,RegPatterns/26d-ms_1_1_2_1_1_2_4_unit250.mp3,2,1,0,1,0,1,,,,,,,,,,,,,,,,,,
,,,,,,,,,,,,,train15_audtrain2,2023-11-12_20h35.27.144,AudTraining2,2021.2.3,Win32,142.8571429,,,,,,,,,,,,,,RegPatterns/26-ms_1_1_2_2_1_1_4_unit250.mp3,0,2,0,2,0,1,,,,,,,,,,,,,,,,,,
,,,,,,,,,,,,,train15_audtrain2,2023-11-12_20h35.27.144,AudTraining2,2021.2.3,Win32,142.8571429,,,,,,,,,,,,,,,,,,,,,2,1.1972,2,5,29,8,1,RegPatterns/26-ms_1_1_2_2_1_1_4_unit250.mp3,RegPatterns/26d-ms_1_1_2_1_1_2_4_unit250.mp3,,,,,,,,,
,,,,,,,,,,,,,train15_audtrain2,2023-11-12_20h35.27.144,AudTraining2,2021.2.3,Win32,142.8571429,,,,,,,,,,,,,,RegPatterns/18-ms_4_2_2_1_1_2_unit270.mp3,0,0,0,0,0,1,,,,,,,,,,,,,,,,,,
,,,,,,,,,,,,,train15_audtrain2,2023-11-12_20h35.27.144,AudTraining2,2021.2.3,Win32,142.8571429,,,,,,,,,,,,,,RegPatterns/18-ms_4_2_2_1_1_2_unit270.mp3,0,1,0,1,0,1,,,,,,,,,,,,,,,,,,
,,,,,,,,,,,,,train15_audtrain2,2023-11-12_20h35.27.144,AudTraining2,2021.2.3,Win32,142.8571429,,,,,,,,,,,,,,RegPatterns/18d-ms_4_2_2_2_1_1_unit270.mp3,3,2,0,2,0,1,,,,,,,,,,,,,,,,,,
,,,,,,,,,,,,,train15_audtrain2,2023-11-12_20h35.27.144,AudTraining2,2021.2.3,Win32,142.8571429,,,,,,,,,,,,,,,,,,,,,3,1.114,2,6,30,6,1,RegPatterns/18-ms_4_2_2_1_1_2_unit270.mp3,RegPatterns/18d-ms_4_2_2_2_1_1_unit270.mp3,,,,,,,,,
,,,,,,,,,,,,,train15_audtrain2,2023-11-12_20h35.27.144,AudTraining2,2021.2.3,Win32,142.8571429,,,,,,,,,,,,,,RegPatterns/20-ms_2_1_1_2_2_3_1_unit230.mp3,0,0,0,0,0,1,,,,,,,,,,,,,,,,,,
,,,,,,,,,,,,,train15_audtrain2,2023-11-12_20h35.27.144,AudTraining2,2021.2.3,Win32,142.8571429,,,,,,,,,,,,,,RegPatterns/20-ms_2_1_1_2_2_3_1_unit230.mp3,0,1,0,1,0,1,,,,,,,,,,,,,,,,,,
,,,,,,,,,,,,,train15_audtrain2,2023-11-12_20h35.27.144,AudTraining2,2021.2.3,Win32,142.8571429,,,,,,,,,,,,,,RegPatterns/20d-ms_2_1_1_2_2_1_3_unit230.mp3,3,2,0,2,0,1,,,,,,,,,,,,,,,,,,
,,,,,,,,,,,,,train15_audtrain2,2023-11-12_20h35.27.144,AudTraining2,2021.2.3,Win32,142.8571429,,,,,,,,,,,,,,,,,,,,,2,0.3763,2,7,31,11,1,RegPatterns/20-ms_2_1_1_2_2_3_1_unit230.mp3,RegPatterns/20d-ms_2_1_1_2_2_1_3_unit230.mp3,,,,,,,,,
,,,,,,,,,,,,,train15_audtrain2,2023-11-12_20h35.27.144,AudTraining2,2021.2.3,Win32,142.8571429,,,,,,,,,,,,,,RegPatterns/30d-ms_1_3_2_2_1_1_2_unit230.mp3,1,0,0,0,0,1,,,,,,,,,,,,,,,,,,
,,,,,,,,,,,,,train15_audtrain2,2023-11-12_20h35.27.144,AudTraining2,2021.2.3,Win32,142.8571429,,,,,,,,,,,,,,RegPatterns/30-ms_3_1_2_2_1_1_2_unit230.mp3,0,1,0,1,0,1,,,,,,,,,,,,,,,,,,
,,,,,,,,,,,,,train15_audtrain2,2023-11-12_20h35.27.144,AudTraining2,2021.2.3,Win32,142.8571429,,,,,,,,,,,,,,RegPatterns/30-ms_3_1_2_2_1_1_2_unit230.mp3,0,2,0,2,0,1,,,,,,,,,,,,,,,,,,
,,,,,,,,,,,,,train15_audtrain2,2023-11-12_20h35.27.144,AudTraining2,2021.2.3,Win32,142.8571429,,,,,,,,,,,,,,,,,,,,,1,0.509,2,8,32,10,1,RegPatterns/30-ms_3_1_2_2_1_1_2_unit230.mp3,RegPatterns/30d-ms_1_3_2_2_1_1_2_unit230.mp3,,,,,,,,,
,,,,,,,,,,,,,train15_audtrain2,2023-11-12_20h35.27.144,AudTraining2,2021.2.3,Win32,142.8571429,,,,,,,,,,,,,,RegPatterns/02-ms_3_1_4_1_3_unit250.mp3,0,0,0,0,0,1,,,,,,,,,,,,,,,,,,
,,,,,,,,,,,,,train15_audtrain2,2023-11-12_20h35.27.144,AudTraining2,2021.2.3,Win32,142.8571429,,,,,,,,,,,,,,RegPatterns/02d-ms_3_1_4_3_1_unit250.mp3,2,1,0,1,0,1,,,,,,,,,,,,,,,,,,
,,,,,,,,,,,,,train15_audtrain2,2023-11-12_20h35.27.144,AudTraining2,2021.2.3,Win32,142.8571429,,,,,,,,,,,,,,RegPatterns/02-ms_3_1_4_1_3_unit250.mp3,0,2,0,2,0,1,,,,,,,,,,,,,,,,,,
,,,,,,,,,,,,,train15_audtrain2,2023-11-12_20h35.27.144,AudTraining2,2021.2.3,Win32,142.8571429,,,,,,,,,,,,,,,,,,,,,3,0.4724,2,9,33,0,1,RegPatterns/02-ms_3_1_4_1_3_unit250.mp3,RegPatterns/02d-ms_3_1_4_3_1_unit250.mp3,,,,,,,,,
,,,,,,,,,,,,,train15_audtrain2,2023-11-12_20h35.27.144,AudTraining2,2021.2.3,Win32,142.8571429,,,,,,,,,,,,,,RegPatterns/16-ms_3_1_2_2_1_3_unit230.mp3,0,0,0,0,0,1,,,,,,,,,,,,,,,,,,
,,,,,,,,,,,,,train15_audtrain2,2023-11-12_20h35.27.144,AudTraining2,2021.2.3,Win32,142.8571429,,,,,,,,,,,,,,RegPatterns/16d-ms_3_1_2_2_3_1_unit230.mp3,2,1,0,1,0,1,,,,,,,,,,,,,,,,,,
,,,,,,,,,,,,,train15_audtrain2,2023-11-12_20h35.27.144,AudTraining2,2021.2.3,Win32,142.8571429,,,,,,,,,,,,,,RegPatterns/16-ms_3_1_2_2_1_3_unit230.mp3,0,2,0,2,0,1,,,,,,,,,,,,,,,,,,
,,,,,,,,,,,,,train15_audtrain2,2023-11-12_20h35.27.144,AudTraining2,2021.2.3,Win32,142.8571429,,,,,,,,,,,,,,,,,,,,,3,0.3832,2,10,34,5,1,RegPatterns/16-ms_3_1_2_2_1_3_unit230.mp3,RegPatterns/16d-ms_3_1_2_2_3_1_unit230.mp3,,,,,,,,,
,,,,,,,,,,,,,train15_audtrain2,2023-11-12_20h35.27.144,AudTraining2,2021.2.3,Win32,142.8571429,,,,,,,,,,,,,,RegPatterns/14-ms_2_1_1_4_1_3_unit250.mp3,0,0,0,0,0,1,,,,,,,,,,,,,,,,,,
,,,,,,,,,,,,,train15_audtrain2,2023-11-12_20h35.27.144,AudTraining2,2021.2.3,Win32,142.8571429,,,,,,,,,,,,,,RegPatterns/14-ms_2_1_1_4_1_3_unit250.mp3,0,1,0,1,0,1,,,,,,,,,,,,,,,,,,
,,,,,,,,,,,,,train15_audtrain2,2023-11-12_20h35.27.144,AudTraining2,2021.2.3,Win32,142.8571429,,,,,,,,,,,,,,RegPatterns/14d-ms_2_1_1_4_3_1_unit250.mp3,3,2,0,2,0,1,,,,,,,,,,,,,,,,,,
,,,,,,,,,,,,,train15_audtrain2,2023-11-12_20h35.27.144,AudTraining2,2021.2.3,Win32,142.8571429,,,,,,,,,,,,,,,,,,,,,1,0.2931,2,11,35,4,1,RegPatterns/14-ms_2_1_1_4_1_3_unit250.mp3,RegPatterns/14d-ms_2_1_1_4_3_1_unit250.mp3,,,,,,,,,
,,,,,,,,,,,,,train15_audtrain2,2023-11-12_20h35.27.144,AudTraining2,2021.2.3,Win32,142.8571429,,,,,,,,,,,,,,,,,,,,,,,,,,,,,,,,,,,,,space,3.6353
