key_resp.keys,key_resp.rt,key_resp_2.keys,key_resp_2.rt,key_resp_3.keys,key_resp_3.rt,trials.thisRepN,trials.thisTrialN,trials.thisN,trials.thisIndex,trials.ran,volstandard,voldeviant,participant,date,expName,psychopyVersion,OS,frameRate,key_resp_4.keys,key_resp_4.rt,key_resp_5.keys,key_resp_5.rt,trials_2.thisRepN,trials_2.thisTrialN,trials_2.thisN,trials_2.thisIndex,trials_2.ran,RegStandardPitch,RegDeviantPitch,key_resp_6.keys,key_resp_6.rt,RegAudSequence,diff-reg,trials_3.thisRepN,trials_3.thisTrialN,trials_3.thisN,trials_3.thisIndex,trials_3.ran,key_resp_7.keys,key_resp_7.rt,trials_5.thisRepN,trials_5.thisTrialN,trials_5.thisN,trials_5.thisIndex,trials_5.ran,standard,devient,key_resp_8.keys,key_resp_8.rt,trials_4.thisRepN,trials_4.thisTrialN,trials_4.thisN,trials_4.thisIndex,trials_4.ran,key_resp_9.keys,key_resp_9.rt
space,0.94,space,1.0641,space,0.6635,0,0,0,0,1,RegPatterns/01-ms_2_2_4_1_3_unit230.mp3,RegPatterns/01d-ms_2_2_4_3_1_unit230.mp3,train37_audtrain2,2023-11-26_19h46.06.028,AudTraining2,2021.2.3,MacIntel,60.0024001,,,,,,,,,,,,,,,,,,,,,,,,,,,,,,,,,,,,,,
,,,,,,,,,,,,,train37_audtrain2,2023-11-26_19h46.06.028,AudTraining2,2021.2.3,MacIntel,60.0024001,space,14.8119,g,3.0485,0,0,0,0,1,RegPatterns/Noise.mp3,RegPatterns/Noise.mp3,,,,,,,,,,,,,,,,,,,,,,,,,,,
,,,,,,,,,,,,,train37_audtrain2,2023-11-26_19h46.06.028,AudTraining2,2021.2.3,MacIntel,60.0024001,,,,,,,,,,,,space,3.8558,RegPatterns/30d-ms_1_3_2_2_1_1_2_unit230.mp3,1,0,0,0,0,1,,,,,,,,,,,,,,,,,,
,,,,,,,,,,,,,train37_audtrain2,2023-11-26_19h46.06.028,AudTraining2,2021.2.3,MacIntel,60.0024001,,,,,,,,,,,,,,RegPatterns/30-ms_3_1_2_2_1_1_2_unit230.mp3,0,1,0,1,0,1,,,,,,,,,,,,,,,,,,
,,,,,,,,,,,,,train37_audtrain2,2023-11-26_19h46.06.028,AudTraining2,2021.2.3,MacIntel,60.0024001,,,,,,,,,,,,,,RegPatterns/30-ms_3_1_2_2_1_1_2_unit230.mp3,0,2,0,2,0,1,,,,,,,,,,,,,,,,,,
,,,,,,,,,,,,,train37_audtrain2,2023-11-26_19h46.06.028,AudTraining2,2021.2.3,MacIntel,60.0024001,,,,,,,,,,,,,,,,,,,,,1,0.276,0,0,0,10,1,RegPatterns/30-ms_3_1_2_2_1_1_2_unit230.mp3,RegPatterns/30d-ms_1_3_2_2_1_1_2_unit230.mp3,,,,,,,,,
,,,,,,,,,,,,,train37_audtrain2,2023-11-26_19h46.06.028,AudTraining2,2021.2.3,MacIntel,60.0024001,,,,,,,,,,,,,,RegPatterns/20d-ms_2_1_1_2_2_1_3_unit230.mp3,1,0,0,0,0,1,,,,,,,,,,,,,,,,,,
,,,,,,,,,,,,,train37_audtrain2,2023-11-26_19h46.06.028,AudTraining2,2021.2.3,MacIntel,60.0024001,,,,,,,,,,,,,,RegPatterns/20-ms_2_1_1_2_2_3_1_unit230.mp3,0,1,0,1,0,1,,,,,,,,,,,,,,,,,,
,,,,,,,,,,,,,train37_audtrain2,2023-11-26_19h46.06.028,AudTraining2,2021.2.3,MacIntel,60.0024001,,,,,,,,,,,,,,RegPatterns/20-ms_2_1_1_2_2_3_1_unit230.mp3,0,2,0,2,0,1,,,,,,,,,,,,,,,,,,
,,,,,,,,,,,,,train37_audtrain2,2023-11-26_19h46.06.028,AudTraining2,2021.2.3,MacIntel,60.0024001,,,,,,,,,,,,,,,,,,,,,2,1.8962,0,1,1,11,1,RegPatterns/20-ms_2_1_1_2_2_3_1_unit230.mp3,RegPatterns/20d-ms_2_1_1_2_2_1_3_unit230.mp3,,,,,,,,,
,,,,,,,,,,,,,train37_audtrain2,2023-11-26_19h46.06.028,AudTraining2,2021.2.3,MacIntel,60.0024001,,,,,,,,,,,,,,RegPatterns/18d-ms_4_2_2_2_1_1_unit270.mp3,1,0,0,0,0,1,,,,,,,,,,,,,,,,,,
,,,,,,,,,,,,,train37_audtrain2,2023-11-26_19h46.06.028,AudTraining2,2021.2.3,MacIntel,60.0024001,,,,,,,,,,,,,,RegPatterns/18-ms_4_2_2_1_1_2_unit270.mp3,0,1,0,1,0,1,,,,,,,,,,,,,,,,,,
,,,,,,,,,,,,,train37_audtrain2,2023-11-26_19h46.06.028,AudTraining2,2021.2.3,MacIntel,60.0024001,,,,,,,,,,,,,,RegPatterns/18-ms_4_2_2_1_1_2_unit270.mp3,0,2,0,2,0,1,,,,,,,,,,,,,,,,,,
,,,,,,,,,,,,,train37_audtrain2,2023-11-26_19h46.06.028,AudTraining2,2021.2.3,MacIntel,60.0024001,,,,,,,,,,,,,,,,,,,,,1,0.3048,0,2,2,6,1,RegPatterns/18-ms_4_2_2_1_1_2_unit270.mp3,RegPatterns/18d-ms_4_2_2_2_1_1_unit270.mp3,,,,,,,,,
,,,,,,,,,,,,,train37_audtrain2,2023-11-26_19h46.06.028,AudTraining2,2021.2.3,MacIntel,60.0024001,,,,,,,,,,,,,,RegPatterns/29-ms_3_1_2_1_1_1_3_unit250.mp3,0,0,0,0,0,1,,,,,,,,,,,,,,,,,,
,,,,,,,,,,,,,train37_audtrain2,2023-11-26_19h46.06.028,AudTraining2,2021.2.3,MacIntel,60.0024001,,,,,,,,,,,,,,RegPatterns/29-ms_3_1_2_1_1_1_3_unit250.mp3,0,1,0,1,0,1,,,,,,,,,,,,,,,,,,
,,,,,,,,,,,,,train37_audtrain2,2023-11-26_19h46.06.028,AudTraining2,2021.2.3,MacIntel,60.0024001,,,,,,,,,,,,,,RegPatterns/29d-ms_3_1_2_1_1_3_1_unit250.mp3,3,2,0,2,0,1,,,,,,,,,,,,,,,,,,
,,,,,,,,,,,,,train37_audtrain2,2023-11-26_19h46.06.028,AudTraining2,2021.2.3,MacIntel,60.0024001,,,,,,,,,,,,,,,,,,,,,3,0.2034,0,3,3,9,1,RegPatterns/29-ms_3_1_2_1_1_1_3_unit250.mp3,RegPatterns/29d-ms_3_1_2_1_1_3_1_unit250.mp3,,,,,,,,,
,,,,,,,,,,,,,train37_audtrain2,2023-11-26_19h46.06.028,AudTraining2,2021.2.3,MacIntel,60.0024001,,,,,,,,,,,,,,RegPatterns/14-ms_2_1_1_4_1_3_unit250.mp3,0,0,0,0,0,1,,,,,,,,,,,,,,,,,,
,,,,,,,,,,,,,train37_audtrain2,2023-11-26_19h46.06.028,AudTraining2,2021.2.3,MacIntel,60.0024001,,,,,,,,,,,,,,RegPatterns/14-ms_2_1_1_4_1_3_unit250.mp3,0,1,0,1,0,1,,,,,,,,,,,,,,,,,,
,,,,,,,,,,,,,train37_audtrain2,2023-11-26_19h46.06.028,AudTraining2,2021.2.3,MacIntel,60.0024001,,,,,,,,,,,,,,RegPatterns/14d-ms_2_1_1_4_3_1_unit250.mp3,3,2,0,2,0,1,,,,,,,,,,,,,,,,,,
,,,,,,,,,,,,,train37_audtrain2,2023-11-26_19h46.06.028,AudTraining2,2021.2.3,MacIntel,60.0024001,,,,,,,,,,,,,,,,,,,,,2,1.9171,0,4,4,4,1,RegPatterns/14-ms_2_1_1_4_1_3_unit250.mp3,RegPatterns/14d-ms_2_1_1_4_3_1_unit250.mp3,,,,,,,,,
,,,,,,,,,,,,,train37_audtrain2,2023-11-26_19h46.06.028,AudTraining2,2021.2.3,MacIntel,60.0024001,,,,,,,,,,,,,,RegPatterns/03-ms_3_1_4_2_2_unit270.mp3,0,0,0,0,0,1,,,,,,,,,,,,,,,,,,
,,,,,,,,,,,,,train37_audtrain2,2023-11-26_19h46.06.028,AudTraining2,2021.2.3,MacIntel,60.0024001,,,,,,,,,,,,,,RegPatterns/03-ms_3_1_4_2_2_unit270.mp3,0,1,0,1,0,1,,,,,,,,,,,,,,,,,,
,,,,,,,,,,,,,train37_audtrain2,2023-11-26_19h46.06.028,AudTraining2,2021.2.3,MacIntel,60.0024001,,,,,,,,,,,,,,RegPatterns/03d-ms_1_3_4_2_2_unit270.mp3,3,2,0,2,0,1,,,,,,,,,,,,,,,,,,
,,,,,,,,,,,,,train37_audtrain2,2023-11-26_19h46.06.028,AudTraining2,2021.2.3,MacIntel,60.0024001,,,,,,,,,,,,,,,,,,,,,3,0.2932,0,5,5,1,1,RegPatterns/03-ms_3_1_4_2_2_unit270.mp3,RegPatterns/03d-ms_1_3_4_2_2_unit270.mp3,,,,,,,,,
,,,,,,,,,,,,,train37_audtrain2,2023-11-26_19h46.06.028,AudTraining2,2021.2.3,MacIntel,60.0024001,,,,,,,,,,,,,,RegPatterns/02-ms_3_1_4_1_3_unit250.mp3,0,0,0,0,0,1,,,,,,,,,,,,,,,,,,
,,,,,,,,,,,,,train37_audtrain2,2023-11-26_19h46.06.028,AudTraining2,2021.2.3,MacIntel,60.0024001,,,,,,,,,,,,,,RegPatterns/02-ms_3_1_4_1_3_unit250.mp3,0,1,0,1,0,1,,,,,,,,,,,,,,,,,,
,,,,,,,,,,,,,train37_audtrain2,2023-11-26_19h46.06.028,AudTraining2,2021.2.3,MacIntel,60.0024001,,,,,,,,,,,,,,RegPatterns/02d-ms_3_1_4_3_1_unit250.mp3,3,2,0,2,0,1,,,,,,,,,,,,,,,,,,
,,,,,,,,,,,,,train37_audtrain2,2023-11-26_19h46.06.028,AudTraining2,2021.2.3,MacIntel,60.0024001,,,,,,,,,,,,,,,,,,,,,3,0.2855,0,6,6,0,1,RegPatterns/02-ms_3_1_4_1_3_unit250.mp3,RegPatterns/02d-ms_3_1_4_3_1_unit250.mp3,,,,,,,,,
,,,,,,,,,,,,,train37_audtrain2,2023-11-26_19h46.06.028,AudTraining2,2021.2.3,MacIntel,60.0024001,,,,,,,,,,,,,,RegPatterns/19-ms_1_1_2_3_1_2_2_unit230.mp3,0,0,0,0,0,1,,,,,,,,,,,,,,,,,,
,,,,,,,,,,,,,train37_audtrain2,2023-11-26_19h46.06.028,AudTraining2,2021.2.3,MacIntel,60.0024001,,,,,,,,,,,,,,RegPatterns/19d-ms_1_1_2_1_3_2_2_unit230.mp3,2,1,0,1,0,1,,,,,,,,,,,,,,,,,,
,,,,,,,,,,,,,train37_audtrain2,2023-11-26_19h46.06.028,AudTraining2,2021.2.3,MacIntel,60.0024001,,,,,,,,,,,,,,RegPatterns/19-ms_1_1_2_3_1_2_2_unit230.mp3,0,2,0,2,0,1,,,,,,,,,,,,,,,,,,
,,,,,,,,,,,,,train37_audtrain2,2023-11-26_19h46.06.028,AudTraining2,2021.2.3,MacIntel,60.0024001,,,,,,,,,,,,,,,,,,,,,2,0.2169,0,7,7,7,1,RegPatterns/19-ms_1_1_2_3_1_2_2_unit230.mp3,RegPatterns/19d-ms_1_1_2_1_3_2_2_unit230.mp3,,,,,,,,,
,,,,,,,,,,,,,train37_audtrain2,2023-11-26_19h46.06.028,AudTraining2,2021.2.3,MacIntel,60.0024001,,,,,,,,,,,,,,RegPatterns/09d-ms_2_1_1_3_1_4_unit270.mp3,1,0,0,0,0,1,,,,,,,,,,,,,,,,,,
,,,,,,,,,,,,,train37_audtrain2,2023-11-26_19h46.06.028,AudTraining2,2021.2.3,MacIntel,60.0024001,,,,,,,,,,,,,,RegPatterns/09-ms_2_1_1_1_3_4_unit270.mp3,0,1,0,1,0,1,,,,,,,,,,,,,,,,,,
,,,,,,,,,,,,,train37_audtrain2,2023-11-26_19h46.06.028,AudTraining2,2021.2.3,MacIntel,60.0024001,,,,,,,,,,,,,,RegPatterns/09-ms_2_1_1_1_3_4_unit270.mp3,0,2,0,2,0,1,,,,,,,,,,,,,,,,,,
,,,,,,,,,,,,,train37_audtrain2,2023-11-26_19h46.06.028,AudTraining2,2021.2.3,MacIntel,60.0024001,,,,,,,,,,,,,,,,,,,,,3,1.5781,0,8,8,2,1,RegPatterns/09-ms_2_1_1_1_3_4_unit270.mp3,RegPatterns/09d-ms_2_1_1_3_1_4_unit270.mp3,,,,,,,,,
,,,,,,,,,,,,,train37_audtrain2,2023-11-26_19h46.06.028,AudTraining2,2021.2.3,MacIntel,60.0024001,,,,,,,,,,,,,,RegPatterns/12d-ms_3_1_3_1_2_2_unit270.mp3,1,0,0,0,0,1,,,,,,,,,,,,,,,,,,
,,,,,,,,,,,,,train37_audtrain2,2023-11-26_19h46.06.028,AudTraining2,2021.2.3,MacIntel,60.0024001,,,,,,,,,,,,,,RegPatterns/12-ms_3_1_1_3_2_2_unit270.mp3,0,1,0,1,0,1,,,,,,,,,,,,,,,,,,
,,,,,,,,,,,,,train37_audtrain2,2023-11-26_19h46.06.028,AudTraining2,2021.2.3,MacIntel,60.0024001,,,,,,,,,,,,,,RegPatterns/12-ms_3_1_1_3_2_2_unit270.mp3,0,2,0,2,0,1,,,,,,,,,,,,,,,,,,
,,,,,,,,,,,,,train37_audtrain2,2023-11-26_19h46.06.028,AudTraining2,2021.2.3,MacIntel,60.0024001,,,,,,,,,,,,,,,,,,,,,1,29.2045,0,9,9,3,1,RegPatterns/12-ms_3_1_1_3_2_2_unit270.mp3,RegPatterns/12d-ms_3_1_3_1_2_2_unit270.mp3,,,,,,,,,
,,,,,,,,,,,,,train37_audtrain2,2023-11-26_19h46.06.028,AudTraining2,2021.2.3,MacIntel,60.0024001,,,,,,,,,,,,,,RegPatterns/16d-ms_3_1_2_2_3_1_unit230.mp3,1,0,0,0,0,1,,,,,,,,,,,,,,,,,,
,,,,,,,,,,,,,train37_audtrain2,2023-11-26_19h46.06.028,AudTraining2,2021.2.3,MacIntel,60.0024001,,,,,,,,,,,,,,RegPatterns/16-ms_3_1_2_2_1_3_unit230.mp3,0,1,0,1,0,1,,,,,,,,,,,,,,,,,,
,,,,,,,,,,,,,train37_audtrain2,2023-11-26_19h46.06.028,AudTraining2,2021.2.3,MacIntel,60.0024001,,,,,,,,,,,,,,RegPatterns/16-ms_3_1_2_2_1_3_unit230.mp3,0,2,0,2,0,1,,,,,,,,,,,,,,,,,,
,,,,,,,,,,,,,train37_audtrain2,2023-11-26_19h46.06.028,AudTraining2,2021.2.3,MacIntel,60.0024001,,,,,,,,,,,,,,,,,,,,,1,1.8182,0,10,10,5,1,RegPatterns/16-ms_3_1_2_2_1_3_unit230.mp3,RegPatterns/16d-ms_3_1_2_2_3_1_unit230.mp3,,,,,,,,,
,,,,,,,,,,,,,train37_audtrain2,2023-11-26_19h46.06.028,AudTraining2,2021.2.3,MacIntel,60.0024001,,,,,,,,,,,,,,RegPatterns/26d-ms_1_1_2_1_1_2_4_unit250.mp3,1,0,0,0,0,1,,,,,,,,,,,,,,,,,,
,,,,,,,,,,,,,train37_audtrain2,2023-11-26_19h46.06.028,AudTraining2,2021.2.3,MacIntel,60.0024001,,,,,,,,,,,,,,RegPatterns/26-ms_1_1_2_2_1_1_4_unit250.mp3,0,1,0,1,0,1,,,,,,,,,,,,,,,,,,
,,,,,,,,,,,,,train37_audtrain2,2023-11-26_19h46.06.028,AudTraining2,2021.2.3,MacIntel,60.0024001,,,,,,,,,,,,,,RegPatterns/26-ms_1_1_2_2_1_1_4_unit250.mp3,0,2,0,2,0,1,,,,,,,,,,,,,,,,,,
,,,,,,,,,,,,,train37_audtrain2,2023-11-26_19h46.06.028,AudTraining2,2021.2.3,MacIntel,60.0024001,,,,,,,,,,,,,,,,,,,,,3,0.3858,0,11,11,8,1,RegPatterns/26-ms_1_1_2_2_1_1_4_unit250.mp3,RegPatterns/26d-ms_1_1_2_1_1_2_4_unit250.mp3,,,,,,,,,
,,,,,,,,,,,,,train37_audtrain2,2023-11-26_19h46.06.028,AudTraining2,2021.2.3,MacIntel,60.0024001,,,,,,,,,,,,,,RegPatterns/03-ms_3_1_4_2_2_unit270.mp3,0,0,0,0,0,1,,,,,,,,,,,,,,,,,,
,,,,,,,,,,,,,train37_audtrain2,2023-11-26_19h46.06.028,AudTraining2,2021.2.3,MacIntel,60.0024001,,,,,,,,,,,,,,RegPatterns/03d-ms_1_3_4_2_2_unit270.mp3,2,1,0,1,0,1,,,,,,,,,,,,,,,,,,
,,,,,,,,,,,,,train37_audtrain2,2023-11-26_19h46.06.028,AudTraining2,2021.2.3,MacIntel,60.0024001,,,,,,,,,,,,,,RegPatterns/03-ms_3_1_4_2_2_unit270.mp3,0,2,0,2,0,1,,,,,,,,,,,,,,,,,,
,,,,,,,,,,,,,train37_audtrain2,2023-11-26_19h46.06.028,AudTraining2,2021.2.3,MacIntel,60.0024001,,,,,,,,,,,,,,,,,,,,,1,11.3545,1,0,12,1,1,RegPatterns/03-ms_3_1_4_2_2_unit270.mp3,RegPatterns/03d-ms_1_3_4_2_2_unit270.mp3,,,,,,,,,
,,,,,,,,,,,,,train37_audtrain2,2023-11-26_19h46.06.028,AudTraining2,2021.2.3,MacIntel,60.0024001,,,,,,,,,,,,,,RegPatterns/09-ms_2_1_1_1_3_4_unit270.mp3,0,0,0,0,0,1,,,,,,,,,,,,,,,,,,
,,,,,,,,,,,,,train37_audtrain2,2023-11-26_19h46.06.028,AudTraining2,2021.2.3,MacIntel,60.0024001,,,,,,,,,,,,,,RegPatterns/09d-ms_2_1_1_3_1_4_unit270.mp3,2,1,0,1,0,1,,,,,,,,,,,,,,,,,,
,,,,,,,,,,,,,train37_audtrain2,2023-11-26_19h46.06.028,AudTraining2,2021.2.3,MacIntel,60.0024001,,,,,,,,,,,,,,RegPatterns/09-ms_2_1_1_1_3_4_unit270.mp3,0,2,0,2,0,1,,,,,,,,,,,,,,,,,,
,,,,,,,,,,,,,train37_audtrain2,2023-11-26_19h46.06.028,AudTraining2,2021.2.3,MacIntel,60.0024001,,,,,,,,,,RegPatterns/Noise.mp3,RegPatterns/Noise.mp3,,,,,,,,,,1,1.6883,,,,,,,,g,5.1147,0,0,0,0,1,,
,,,,,,,,,,,,,train37_audtrain2,2023-11-26_19h46.06.028,AudTraining2,2021.2.3,MacIntel,60.0024001,,,,,,,,,,,,,,,,,,,,,,,1,1,13,2,1,RegPatterns/09-ms_2_1_1_1_3_4_unit270.mp3,RegPatterns/09d-ms_2_1_1_3_1_4_unit270.mp3,,,,,,,,,
,,,,,,,,,,,,,train37_audtrain2,2023-11-26_19h46.06.028,AudTraining2,2021.2.3,MacIntel,60.0024001,,,,,,,,,,,,,,RegPatterns/20-ms_2_1_1_2_2_3_1_unit230.mp3,0,0,0,0,0,1,,,,,,,,,,,,,,,,,,
,,,,,,,,,,,,,train37_audtrain2,2023-11-26_19h46.06.028,AudTraining2,2021.2.3,MacIntel,60.0024001,,,,,,,,,,,,,,RegPatterns/20-ms_2_1_1_2_2_3_1_unit230.mp3,0,1,0,1,0,1,,,,,,,,,,,,,,,,,,
,,,,,,,,,,,,,train37_audtrain2,2023-11-26_19h46.06.028,AudTraining2,2021.2.3,MacIntel,60.0024001,,,,,,,,,,,,,,RegPatterns/20d-ms_2_1_1_2_2_1_3_unit230.mp3,3,2,0,2,0,1,,,,,,,,,,,,,,,,,,
,,,,,,,,,,,,,train37_audtrain2,2023-11-26_19h46.06.028,AudTraining2,2021.2.3,MacIntel,60.0024001,,,,,,,,,,,,,,,,,,,,,2,0.4534,1,2,14,11,1,RegPatterns/20-ms_2_1_1_2_2_3_1_unit230.mp3,RegPatterns/20d-ms_2_1_1_2_2_1_3_unit230.mp3,,,,,,,,,
,,,,,,,,,,,,,train37_audtrain2,2023-11-26_19h46.06.028,AudTraining2,2021.2.3,MacIntel,60.0024001,,,,,,,,,,,,,,RegPatterns/12-ms_3_1_1_3_2_2_unit270.mp3,0,0,0,0,0,1,,,,,,,,,,,,,,,,,,
,,,,,,,,,,,,,train37_audtrain2,2023-11-26_19h46.06.028,AudTraining2,2021.2.3,MacIntel,60.0024001,,,,,,,,,,,,,,RegPatterns/12-ms_3_1_1_3_2_2_unit270.mp3,0,1,0,1,0,1,,,,,,,,,,,,,,,,,,
,,,,,,,,,,,,,train37_audtrain2,2023-11-26_19h46.06.028,AudTraining2,2021.2.3,MacIntel,60.0024001,,,,,,,,,,,,,,RegPatterns/12d-ms_3_1_3_1_2_2_unit270.mp3,3,2,0,2,0,1,,,,,,,,,,,,,,,,,,
,,,,,,,,,,,,,train37_audtrain2,2023-11-26_19h46.06.028,AudTraining2,2021.2.3,MacIntel,60.0024001,,,,,,,,,,,,,,,,,,,,,3,0.3499,1,3,15,3,1,RegPatterns/12-ms_3_1_1_3_2_2_unit270.mp3,RegPatterns/12d-ms_3_1_3_1_2_2_unit270.mp3,,,,,,,,,
,,,,,,,,,,,,,train37_audtrain2,2023-11-26_19h46.06.028,AudTraining2,2021.2.3,MacIntel,60.0024001,,,,,,,,,,,,,,RegPatterns/18-ms_4_2_2_1_1_2_unit270.mp3,0,0,0,0,0,1,,,,,,,,,,,,,,,,,,
,,,,,,,,,,,,,train37_audtrain2,2023-11-26_19h46.06.028,AudTraining2,2021.2.3,MacIntel,60.0024001,,,,,,,,,,,,,,RegPatterns/18d-ms_4_2_2_2_1_1_unit270.mp3,2,1,0,1,0,1,,,,,,,,,,,,,,,,,,
,,,,,,,,,,,,,train37_audtrain2,2023-11-26_19h46.06.028,AudTraining2,2021.2.3,MacIntel,60.0024001,,,,,,,,,,,,,,RegPatterns/18-ms_4_2_2_1_1_2_unit270.mp3,0,2,0,2,0,1,,,,,,,,,,,,,,,,,,
,,,,,,,,,,,,,train37_audtrain2,2023-11-26_19h46.06.028,AudTraining2,2021.2.3,MacIntel,60.0024001,,,,,,,,,,,,,,,,,,,,,2,2.5921,1,4,16,6,1,RegPatterns/18-ms_4_2_2_1_1_2_unit270.mp3,RegPatterns/18d-ms_4_2_2_2_1_1_unit270.mp3,,,,,,,,,
,,,,,,,,,,,,,train37_audtrain2,2023-11-26_19h46.06.028,AudTraining2,2021.2.3,MacIntel,60.0024001,,,,,,,,,,,,,,RegPatterns/19d-ms_1_1_2_1_3_2_2_unit230.mp3,1,0,0,0,0,1,,,,,,,,,,,,,,,,,,
,,,,,,,,,,,,,train37_audtrain2,2023-11-26_19h46.06.028,AudTraining2,2021.2.3,MacIntel,60.0024001,,,,,,,,,,,,,,RegPatterns/19-ms_1_1_2_3_1_2_2_unit230.mp3,0,1,0,1,0,1,,,,,,,,,,,,,,,,,,
,,,,,,,,,,,,,train37_audtrain2,2023-11-26_19h46.06.028,AudTraining2,2021.2.3,MacIntel,60.0024001,,,,,,,,,,,,,,RegPatterns/19-ms_1_1_2_3_1_2_2_unit230.mp3,0,2,0,2,0,1,,,,,,,,,,,,,,,,,,
,,,,,,,,,,,,,train37_audtrain2,2023-11-26_19h46.06.028,AudTraining2,2021.2.3,MacIntel,60.0024001,,,,,,,,,,,,,,,,,,,,,1,2.3831,1,5,17,7,1,RegPatterns/19-ms_1_1_2_3_1_2_2_unit230.mp3,RegPatterns/19d-ms_1_1_2_1_3_2_2_unit230.mp3,,,,,,,,,
,,,,,,,,,,,,,train37_audtrain2,2023-11-26_19h46.06.028,AudTraining2,2021.2.3,MacIntel,60.0024001,,,,,,,,,,,,,,RegPatterns/26-ms_1_1_2_2_1_1_4_unit250.mp3,0,0,0,0,0,1,,,,,,,,,,,,,,,,,,
,,,,,,,,,,,,,train37_audtrain2,2023-11-26_19h46.06.028,AudTraining2,2021.2.3,MacIntel,60.0024001,,,,,,,,,,,,,,RegPatterns/26-ms_1_1_2_2_1_1_4_unit250.mp3,0,1,0,1,0,1,,,,,,,,,,,,,,,,,,
,,,,,,,,,,,,,train37_audtrain2,2023-11-26_19h46.06.028,AudTraining2,2021.2.3,MacIntel,60.0024001,,,,,,,,,,,,,,RegPatterns/26d-ms_1_1_2_1_1_2_4_unit250.mp3,3,2,0,2,0,1,,,,,,,,,,,,,,,,,,
,,,,,,,,,,,,,train37_audtrain2,2023-11-26_19h46.06.028,AudTraining2,2021.2.3,MacIntel,60.0024001,,,,,,,,,,,,,,,,,,,,,1,0.7714,1,6,18,8,1,RegPatterns/26-ms_1_1_2_2_1_1_4_unit250.mp3,RegPatterns/26d-ms_1_1_2_1_1_2_4_unit250.mp3,,,,,,,,,
,,,,,,,,,,,,,train37_audtrain2,2023-11-26_19h46.06.028,AudTraining2,2021.2.3,MacIntel,60.0024001,,,,,,,,,,,,,,RegPatterns/14-ms_2_1_1_4_1_3_unit250.mp3,0,0,0,0,0,1,,,,,,,,,,,,,,,,,,
,,,,,,,,,,,,,train37_audtrain2,2023-11-26_19h46.06.028,AudTraining2,2021.2.3,MacIntel,60.0024001,,,,,,,,,,,,,,RegPatterns/14d-ms_2_1_1_4_3_1_unit250.mp3,2,1,0,1,0,1,,,,,,,,,,,,,,,,,,
,,,,,,,,,,,,,train37_audtrain2,2023-11-26_19h46.06.028,AudTraining2,2021.2.3,MacIntel,60.0024001,,,,,,,,,,,,,,RegPatterns/14-ms_2_1_1_4_1_3_unit250.mp3,0,2,0,2,0,1,,,,,,,,,,,,,,,,,,
,,,,,,,,,,,,,train37_audtrain2,2023-11-26_19h46.06.028,AudTraining2,2021.2.3,MacIntel,60.0024001,,,,,,,,,,,,,,,,,,,,,1,1.6665,1,7,19,4,1,RegPatterns/14-ms_2_1_1_4_1_3_unit250.mp3,RegPatterns/14d-ms_2_1_1_4_3_1_unit250.mp3,,,,,,,,,
,,,,,,,,,,,,,train37_audtrain2,2023-11-26_19h46.06.028,AudTraining2,2021.2.3,MacIntel,60.0024001,,,,,,,,,,,,,,RegPatterns/02-ms_3_1_4_1_3_unit250.mp3,0,0,0,0,0,1,,,,,,,,,,,,,,,,,,
,,,,,,,,,,,,,train37_audtrain2,2023-11-26_19h46.06.028,AudTraining2,2021.2.3,MacIntel,60.0024001,,,,,,,,,,,,,,RegPatterns/02d-ms_3_1_4_3_1_unit250.mp3,2,1,0,1,0,1,,,,,,,,,,,,,,,,,,
,,,,,,,,,,,,,train37_audtrain2,2023-11-26_19h46.06.028,AudTraining2,2021.2.3,MacIntel,60.0024001,,,,,,,,,,,,,,RegPatterns/02-ms_3_1_4_1_3_unit250.mp3,0,2,0,2,0,1,,,,,,,,,,,,,,,,,,
,,,,,,,,,,,,,train37_audtrain2,2023-11-26_19h46.06.028,AudTraining2,2021.2.3,MacIntel,60.0024001,,,,,,,,,,,,,,,,,,,,,2,0.3155,1,8,20,0,1,RegPatterns/02-ms_3_1_4_1_3_unit250.mp3,RegPatterns/02d-ms_3_1_4_3_1_unit250.mp3,,,,,,,,,
,,,,,,,,,,,,,train37_audtrain2,2023-11-26_19h46.06.028,AudTraining2,2021.2.3,MacIntel,60.0024001,,,,,,,,,,,,,,RegPatterns/30-ms_3_1_2_2_1_1_2_unit230.mp3,0,0,0,0,0,1,,,,,,,,,,,,,,,,,,
,,,,,,,,,,,,,train37_audtrain2,2023-11-26_19h46.06.028,AudTraining2,2021.2.3,MacIntel,60.0024001,,,,,,,,,,,,,,RegPatterns/30-ms_3_1_2_2_1_1_2_unit230.mp3,0,1,0,1,0,1,,,,,,,,,,,,,,,,,,
,,,,,,,,,,,,,train37_audtrain2,2023-11-26_19h46.06.028,AudTraining2,2021.2.3,MacIntel,60.0024001,,,,,,,,,,,,,,RegPatterns/30d-ms_1_3_2_2_1_1_2_unit230.mp3,3,2,0,2,0,1,,,,,,,,,,,,,,,,,,
,,,,,,,,,,,,,train37_audtrain2,2023-11-26_19h46.06.028,AudTraining2,2021.2.3,MacIntel,60.0024001,,,,,,,,,,,,,,,,,,,,,1,0.3686,1,9,21,10,1,RegPatterns/30-ms_3_1_2_2_1_1_2_unit230.mp3,RegPatterns/30d-ms_1_3_2_2_1_1_2_unit230.mp3,,,,,,,,,
,,,,,,,,,,,,,train37_audtrain2,2023-11-26_19h46.06.028,AudTraining2,2021.2.3,MacIntel,60.0024001,,,,,,,,,,,,,,RegPatterns/29d-ms_3_1_2_1_1_3_1_unit250.mp3,1,0,0,0,0,1,,,,,,,,,,,,,,,,,,
,,,,,,,,,,,,,train37_audtrain2,2023-11-26_19h46.06.028,AudTraining2,2021.2.3,MacIntel,60.0024001,,,,,,,,,,,,,,RegPatterns/29-ms_3_1_2_1_1_1_3_unit250.mp3,0,1,0,1,0,1,,,,,,,,,,,,,,,,,,
,,,,,,,,,,,,,train37_audtrain2,2023-11-26_19h46.06.028,AudTraining2,2021.2.3,MacIntel,60.0024001,,,,,,,,,,,,,,RegPatterns/29-ms_3_1_2_1_1_1_3_unit250.mp3,0,2,0,2,0,1,,,,,,,,,,,,,,,,,,
,,,,,,,,,,,,,train37_audtrain2,2023-11-26_19h46.06.028,AudTraining2,2021.2.3,MacIntel,60.0024001,,,,,,,,,,RegPatterns/Noise.mp3,RegPatterns/Noise.mp3,,,,,,,,,,1,1.7842,,,,,,,,2,9.09,0,0,0,0,1,,
,,,,,,,,,,,,,train37_audtrain2,2023-11-26_19h46.06.028,AudTraining2,2021.2.3,MacIntel,60.0024001,,,,,,,,,,,,,,,,,,,,,,,1,10,22,9,1,RegPatterns/29-ms_3_1_2_1_1_1_3_unit250.mp3,RegPatterns/29d-ms_3_1_2_1_1_3_1_unit250.mp3,,,,,,,,,
,,,,,,,,,,,,,train37_audtrain2,2023-11-26_19h46.06.028,AudTraining2,2021.2.3,MacIntel,60.0024001,,,,,,,,,,,,,,RegPatterns/16-ms_3_1_2_2_1_3_unit230.mp3,0,0,0,0,0,1,,,,,,,,,,,,,,,,,,
,,,,,,,,,,,,,train37_audtrain2,2023-11-26_19h46.06.028,AudTraining2,2021.2.3,MacIntel,60.0024001,,,,,,,,,,,,,,RegPatterns/16-ms_3_1_2_2_1_3_unit230.mp3,0,1,0,1,0,1,,,,,,,,,,,,,,,,,,
,,,,,,,,,,,,,train37_audtrain2,2023-11-26_19h46.06.028,AudTraining2,2021.2.3,MacIntel,60.0024001,,,,,,,,,,,,,,RegPatterns/16d-ms_3_1_2_2_3_1_unit230.mp3,3,2,0,2,0,1,,,,,,,,,,,,,,,,,,
,,,,,,,,,,,,,train37_audtrain2,2023-11-26_19h46.06.028,AudTraining2,2021.2.3,MacIntel,60.0024001,,,,,,,,,,,,,,,,,,,,,3,1.5024,1,11,23,5,1,RegPatterns/16-ms_3_1_2_2_1_3_unit230.mp3,RegPatterns/16d-ms_3_1_2_2_3_1_unit230.mp3,,,,,,,,,
,,,,,,,,,,,,,train37_audtrain2,2023-11-26_19h46.06.028,AudTraining2,2021.2.3,MacIntel,60.0024001,,,,,,,,,,,,,,RegPatterns/30-ms_3_1_2_2_1_1_2_unit230.mp3,0,0,0,0,0,1,,,,,,,,,,,,,,,,,,
,,,,,,,,,,,,,train37_audtrain2,2023-11-26_19h46.06.028,AudTraining2,2021.2.3,MacIntel,60.0024001,,,,,,,,,,,,,,RegPatterns/30d-ms_1_3_2_2_1_1_2_unit230.mp3,2,1,0,1,0,1,,,,,,,,,,,,,,,,,,
,,,,,,,,,,,,,train37_audtrain2,2023-11-26_19h46.06.028,AudTraining2,2021.2.3,MacIntel,60.0024001,,,,,,,,,,,,,,RegPatterns/30-ms_3_1_2_2_1_1_2_unit230.mp3,0,2,0,2,0,1,,,,,,,,,,,,,,,,,,
,,,,,,,,,,,,,train37_audtrain2,2023-11-26_19h46.06.028,AudTraining2,2021.2.3,MacIntel,60.0024001,,,,,,,,,,,,,,,,,,,,,2,0.085,2,0,24,10,1,RegPatterns/30-ms_3_1_2_2_1_1_2_unit230.mp3,RegPatterns/30d-ms_1_3_2_2_1_1_2_unit230.mp3,,,,,,,,,
,,,,,,,,,,,,,train37_audtrain2,2023-11-26_19h46.06.028,AudTraining2,2021.2.3,MacIntel,60.0024001,,,,,,,,,,,,,,RegPatterns/16-ms_3_1_2_2_1_3_unit230.mp3,0,0,0,0,0,1,,,,,,,,,,,,,,,,,,
,,,,,,,,,,,,,train37_audtrain2,2023-11-26_19h46.06.028,AudTraining2,2021.2.3,MacIntel,60.0024001,,,,,,,,,,,,,,RegPatterns/16d-ms_3_1_2_2_3_1_unit230.mp3,2,1,0,1,0,1,,,,,,,,,,,,,,,,,,
,,,,,,,,,,,,,train37_audtrain2,2023-11-26_19h46.06.028,AudTraining2,2021.2.3,MacIntel,60.0024001,,,,,,,,,,,,,,RegPatterns/16-ms_3_1_2_2_1_3_unit230.mp3,0,2,0,2,0,1,,,,,,,,,,,,,,,,,,
,,,,,,,,,,,,,train37_audtrain2,2023-11-26_19h46.06.028,AudTraining2,2021.2.3,MacIntel,60.0024001,,,,,,,,,,,,,,,,,,,,,2,0.614,2,1,25,5,1,RegPatterns/16-ms_3_1_2_2_1_3_unit230.mp3,RegPatterns/16d-ms_3_1_2_2_3_1_unit230.mp3,,,,,,,,,
,,,,,,,,,,,,,train37_audtrain2,2023-11-26_19h46.06.028,AudTraining2,2021.2.3,MacIntel,60.0024001,,,,,,,,,,,,,,RegPatterns/26-ms_1_1_2_2_1_1_4_unit250.mp3,0,0,0,0,0,1,,,,,,,,,,,,,,,,,,
,,,,,,,,,,,,,train37_audtrain2,2023-11-26_19h46.06.028,AudTraining2,2021.2.3,MacIntel,60.0024001,,,,,,,,,,,,,,RegPatterns/26d-ms_1_1_2_1_1_2_4_unit250.mp3,2,1,0,1,0,1,,,,,,,,,,,,,,,,,,
,,,,,,,,,,,,,train37_audtrain2,2023-11-26_19h46.06.028,AudTraining2,2021.2.3,MacIntel,60.0024001,,,,,,,,,,,,,,RegPatterns/26-ms_1_1_2_2_1_1_4_unit250.mp3,0,2,0,2,0,1,,,,,,,,,,,,,,,,,,
,,,,,,,,,,,,,train37_audtrain2,2023-11-26_19h46.06.028,AudTraining2,2021.2.3,MacIntel,60.0024001,,,,,,,,,,,,,,,,,,,,,3,0.0058,2,2,26,8,1,RegPatterns/26-ms_1_1_2_2_1_1_4_unit250.mp3,RegPatterns/26d-ms_1_1_2_1_1_2_4_unit250.mp3,,,,,,,,,
,,,,,,,,,,,,,train37_audtrain2,2023-11-26_19h46.06.028,AudTraining2,2021.2.3,MacIntel,60.0024001,,,,,,,,,,,,,,RegPatterns/14d-ms_2_1_1_4_3_1_unit250.mp3,1,0,0,0,0,1,,,,,,,,,,,,,,,,,,
,,,,,,,,,,,,,train37_audtrain2,2023-11-26_19h46.06.028,AudTraining2,2021.2.3,MacIntel,60.0024001,,,,,,,,,,,,,,RegPatterns/14-ms_2_1_1_4_1_3_unit250.mp3,0,1,0,1,0,1,,,,,,,,,,,,,,,,,,
,,,,,,,,,,,,,train37_audtrain2,2023-11-26_19h46.06.028,AudTraining2,2021.2.3,MacIntel,60.0024001,,,,,,,,,,,,,,RegPatterns/14-ms_2_1_1_4_1_3_unit250.mp3,0,2,0,2,0,1,,,,,,,,,,,,,,,,,,
,,,,,,,,,,,,,train37_audtrain2,2023-11-26_19h46.06.028,AudTraining2,2021.2.3,MacIntel,60.0024001,,,,,,,,,,,,,,,,,,,,,1,0.9175,2,3,27,4,1,RegPatterns/14-ms_2_1_1_4_1_3_unit250.mp3,RegPatterns/14d-ms_2_1_1_4_3_1_unit250.mp3,,,,,,,,,
,,,,,,,,,,,,,train37_audtrain2,2023-11-26_19h46.06.028,AudTraining2,2021.2.3,MacIntel,60.0024001,,,,,,,,,,,,,,RegPatterns/29-ms_3_1_2_1_1_1_3_unit250.mp3,0,0,0,0,0,1,,,,,,,,,,,,,,,,,,
,,,,,,,,,,,,,train37_audtrain2,2023-11-26_19h46.06.028,AudTraining2,2021.2.3,MacIntel,60.0024001,,,,,,,,,,,,,,RegPatterns/29d-ms_3_1_2_1_1_3_1_unit250.mp3,2,1,0,1,0,1,,,,,,,,,,,,,,,,,,
,,,,,,,,,,,,,train37_audtrain2,2023-11-26_19h46.06.028,AudTraining2,2021.2.3,MacIntel,60.0024001,,,,,,,,,,,,,,RegPatterns/29-ms_3_1_2_1_1_1_3_unit250.mp3,0,2,0,2,0,1,,,,,,,,,,,,,,,,,,
,,,,,,,,,,,,,train37_audtrain2,2023-11-26_19h46.06.028,AudTraining2,2021.2.3,MacIntel,60.0024001,,,,,,,,,,,,,,,,,,,,,3,1.3682,2,4,28,9,1,RegPatterns/29-ms_3_1_2_1_1_1_3_unit250.mp3,RegPatterns/29d-ms_3_1_2_1_1_3_1_unit250.mp3,,,,,,,,,
,,,,,,,,,,,,,train37_audtrain2,2023-11-26_19h46.06.028,AudTraining2,2021.2.3,MacIntel,60.0024001,,,,,,,,,,,,,,RegPatterns/03d-ms_1_3_4_2_2_unit270.mp3,1,0,0,0,0,1,,,,,,,,,,,,,,,,,,
,,,,,,,,,,,,,train37_audtrain2,2023-11-26_19h46.06.028,AudTraining2,2021.2.3,MacIntel,60.0024001,,,,,,,,,,,,,,RegPatterns/03-ms_3_1_4_2_2_unit270.mp3,0,1,0,1,0,1,,,,,,,,,,,,,,,,,,
,,,,,,,,,,,,,train37_audtrain2,2023-11-26_19h46.06.028,AudTraining2,2021.2.3,MacIntel,60.0024001,,,,,,,,,,,,,,RegPatterns/03-ms_3_1_4_2_2_unit270.mp3,0,2,0,2,0,1,,,,,,,,,,,,,,,,,,
,,,,,,,,,,,,,train37_audtrain2,2023-11-26_19h46.06.028,AudTraining2,2021.2.3,MacIntel,60.0024001,,,,,,,,,,,,,,,,,,,,,2,1.0205,2,5,29,1,1,RegPatterns/03-ms_3_1_4_2_2_unit270.mp3,RegPatterns/03d-ms_1_3_4_2_2_unit270.mp3,,,,,,,,,
,,,,,,,,,,,,,train37_audtrain2,2023-11-26_19h46.06.028,AudTraining2,2021.2.3,MacIntel,60.0024001,,,,,,,,,,,,,,RegPatterns/09-ms_2_1_1_1_3_4_unit270.mp3,0,0,0,0,0,1,,,,,,,,,,,,,,,,,,
,,,,,,,,,,,,,train37_audtrain2,2023-11-26_19h46.06.028,AudTraining2,2021.2.3,MacIntel,60.0024001,,,,,,,,,,,,,,RegPatterns/09-ms_2_1_1_1_3_4_unit270.mp3,0,1,0,1,0,1,,,,,,,,,,,,,,,,,,
,,,,,,,,,,,,,train37_audtrain2,2023-11-26_19h46.06.028,AudTraining2,2021.2.3,MacIntel,60.0024001,,,,,,,,,,,,,,RegPatterns/09d-ms_2_1_1_3_1_4_unit270.mp3,3,2,0,2,0,1,,,,,,,,,,,,,,,,,,
,,,,,,,,,,,,,train37_audtrain2,2023-11-26_19h46.06.028,AudTraining2,2021.2.3,MacIntel,60.0024001,,,,,,,,,,,,,,,,,,,,,1,0.8842,2,6,30,2,1,RegPatterns/09-ms_2_1_1_1_3_4_unit270.mp3,RegPatterns/09d-ms_2_1_1_3_1_4_unit270.mp3,,,,,,,,,
,,,,,,,,,,,,,train37_audtrain2,2023-11-26_19h46.06.028,AudTraining2,2021.2.3,MacIntel,60.0024001,,,,,,,,,,,,,,RegPatterns/18-ms_4_2_2_1_1_2_unit270.mp3,0,0,0,0,0,1,,,,,,,,,,,,,,,,,,
,,,,,,,,,,,,,train37_audtrain2,2023-11-26_19h46.06.028,AudTraining2,2021.2.3,MacIntel,60.0024001,,,,,,,,,,,,,,RegPatterns/18-ms_4_2_2_1_1_2_unit270.mp3,0,1,0,1,0,1,,,,,,,,,,,,,,,,,,
,,,,,,,,,,,,,train37_audtrain2,2023-11-26_19h46.06.028,AudTraining2,2021.2.3,MacIntel,60.0024001,,,,,,,,,,,,,,RegPatterns/18d-ms_4_2_2_2_1_1_unit270.mp3,3,2,0,2,0,1,,,,,,,,,,,,,,,,,,
,,,,,,,,,,,,,train37_audtrain2,2023-11-26_19h46.06.028,AudTraining2,2021.2.3,MacIntel,60.0024001,,,,,,,,,,,,,,,,,,,,,3,2.5932,2,7,31,6,1,RegPatterns/18-ms_4_2_2_1_1_2_unit270.mp3,RegPatterns/18d-ms_4_2_2_2_1_1_unit270.mp3,,,,,,,,,
,,,,,,,,,,,,,train37_audtrain2,2023-11-26_19h46.06.028,AudTraining2,2021.2.3,MacIntel,60.0024001,,,,,,,,,,,,,,RegPatterns/02d-ms_3_1_4_3_1_unit250.mp3,1,0,0,0,0,1,,,,,,,,,,,,,,,,,,
,,,,,,,,,,,,,train37_audtrain2,2023-11-26_19h46.06.028,AudTraining2,2021.2.3,MacIntel,60.0024001,,,,,,,,,,,,,,RegPatterns/02-ms_3_1_4_1_3_unit250.mp3,0,1,0,1,0,1,,,,,,,,,,,,,,,,,,
,,,,,,,,,,,,,train37_audtrain2,2023-11-26_19h46.06.028,AudTraining2,2021.2.3,MacIntel,60.0024001,,,,,,,,,,,,,,RegPatterns/02-ms_3_1_4_1_3_unit250.mp3,0,2,0,2,0,1,,,,,,,,,,,,,,,,,,
,,,,,,,,,,,,,train37_audtrain2,2023-11-26_19h46.06.028,AudTraining2,2021.2.3,MacIntel,60.0024001,,,,,,,,,,,,,,,,,,,,,1,0.1862,2,8,32,0,1,RegPatterns/02-ms_3_1_4_1_3_unit250.mp3,RegPatterns/02d-ms_3_1_4_3_1_unit250.mp3,,,,,,,,,
,,,,,,,,,,,,,train37_audtrain2,2023-11-26_19h46.06.028,AudTraining2,2021.2.3,MacIntel,60.0024001,,,,,,,,,,,,,,RegPatterns/12-ms_3_1_1_3_2_2_unit270.mp3,0,0,0,0,0,1,,,,,,,,,,,,,,,,,,
,,,,,,,,,,,,,train37_audtrain2,2023-11-26_19h46.06.028,AudTraining2,2021.2.3,MacIntel,60.0024001,,,,,,,,,,,,,,RegPatterns/12d-ms_3_1_3_1_2_2_unit270.mp3,2,1,0,1,0,1,,,,,,,,,,,,,,,,,,
,,,,,,,,,,,,,train37_audtrain2,2023-11-26_19h46.06.028,AudTraining2,2021.2.3,MacIntel,60.0024001,,,,,,,,,,,,,,RegPatterns/12-ms_3_1_1_3_2_2_unit270.mp3,0,2,0,2,0,1,,,,,,,,,,,,,,,,,,
,,,,,,,,,,,,,train37_audtrain2,2023-11-26_19h46.06.028,AudTraining2,2021.2.3,MacIntel,60.0024001,,,,,,,,,,,,,,,,,,,,,3,2.4419,2,9,33,3,1,RegPatterns/12-ms_3_1_1_3_2_2_unit270.mp3,RegPatterns/12d-ms_3_1_3_1_2_2_unit270.mp3,,,,,,,,,
,,,,,,,,,,,,,train37_audtrain2,2023-11-26_19h46.06.028,AudTraining2,2021.2.3,MacIntel,60.0024001,,,,,,,,,,,,,,RegPatterns/19-ms_1_1_2_3_1_2_2_unit230.mp3,0,0,0,0,0,1,,,,,,,,,,,,,,,,,,
,,,,,,,,,,,,,train37_audtrain2,2023-11-26_19h46.06.028,AudTraining2,2021.2.3,MacIntel,60.0024001,,,,,,,,,,,,,,RegPatterns/19-ms_1_1_2_3_1_2_2_unit230.mp3,0,1,0,1,0,1,,,,,,,,,,,,,,,,,,
,,,,,,,,,,,,,train37_audtrain2,2023-11-26_19h46.06.028,AudTraining2,2021.2.3,MacIntel,60.0024001,,,,,,,,,,,,,,RegPatterns/19d-ms_1_1_2_1_3_2_2_unit230.mp3,3,2,0,2,0,1,,,,,,,,,,,,,,,,,,
,,,,,,,,,,,,,train37_audtrain2,2023-11-26_19h46.06.028,AudTraining2,2021.2.3,MacIntel,60.0024001,,,,,,,,,,,,,,,,,,,,,2,0.1505,2,10,34,7,1,RegPatterns/19-ms_1_1_2_3_1_2_2_unit230.mp3,RegPatterns/19d-ms_1_1_2_1_3_2_2_unit230.mp3,,,,,,,,,
,,,,,,,,,,,,,train37_audtrain2,2023-11-26_19h46.06.028,AudTraining2,2021.2.3,MacIntel,60.0024001,,,,,,,,,,,,,,RegPatterns/20-ms_2_1_1_2_2_3_1_unit230.mp3,0,0,0,0,0,1,,,,,,,,,,,,,,,,,,
,,,,,,,,,,,,,train37_audtrain2,2023-11-26_19h46.06.028,AudTraining2,2021.2.3,MacIntel,60.0024001,,,,,,,,,,,,,,RegPatterns/20d-ms_2_1_1_2_2_1_3_unit230.mp3,2,1,0,1,0,1,,,,,,,,,,,,,,,,,,
,,,,,,,,,,,,,train37_audtrain2,2023-11-26_19h46.06.028,AudTraining2,2021.2.3,MacIntel,60.0024001,,,,,,,,,,,,,,RegPatterns/20-ms_2_1_1_2_2_3_1_unit230.mp3,0,2,0,2,0,1,,,,,,,,,,,,,,,,,,
,,,,,,,,,,,,,train37_audtrain2,2023-11-26_19h46.06.028,AudTraining2,2021.2.3,MacIntel,60.0024001,,,,,,,,,,,,,,,,,,,,,2,0.6159,2,11,35,11,1,RegPatterns/20-ms_2_1_1_2_2_3_1_unit230.mp3,RegPatterns/20d-ms_2_1_1_2_2_1_3_unit230.mp3,,,,,,,,,
,,,,,,,,,,,,,train37_audtrain2,2023-11-26_19h46.06.028,AudTraining2,2021.2.3,MacIntel,60.0024001,,,,,,,,,,,,,,,,,,,,,,,,,,,,,,,,,,,,,space,1.3555
