key_resp.keys,key_resp.rt,key_resp_2.keys,key_resp_2.rt,key_resp_3.keys,key_resp_3.rt,trials.thisRepN,trials.thisTrialN,trials.thisN,trials.thisIndex,trials.ran,volstandard,voldeviant,participant,date,expName,psychopyVersion,OS,frameRate,key_resp_4.keys,key_resp_4.rt,key_resp_5.keys,key_resp_5.rt,trials_2.thisRepN,trials_2.thisTrialN,trials_2.thisN,trials_2.thisIndex,trials_2.ran,RegStandardPitch,RegDeviantPitch,key_resp_6.keys,key_resp_6.rt,RegAudSequence,diff-reg,trials_3.thisRepN,trials_3.thisTrialN,trials_3.thisN,trials_3.thisIndex,trials_3.ran,key_resp_7.keys,key_resp_7.rt,trials_5.thisRepN,trials_5.thisTrialN,trials_5.thisN,trials_5.thisIndex,trials_5.ran,standard,devient,key_resp_8.keys,key_resp_8.rt,trials_4.thisRepN,trials_4.thisTrialN,trials_4.thisN,trials_4.thisIndex,trials_4.ran,key_resp_9.keys,key_resp_9.rt
space,0.8264,space,0.3415,space,0.6441,0,0,0,0,1,RegPatterns/01-ms_2_2_4_1_3_unit230.mp3,RegPatterns/01d-ms_2_2_4_3_1_unit230.mp3,train37_audtrain2,2023-11-30_01h33.19.271,AudTraining2,2021.2.3,MacIntel,60.0024001,,,,,,,,,,,,,,,,,,,,,,,,,,,,,,,,,,,,,,
,,,,,,,,,,,,,train37_audtrain2,2023-11-30_01h33.19.271,AudTraining2,2021.2.3,MacIntel,60.0024001,space,4.6738,g,0.5077,0,0,0,0,1,RegPatterns/Noise.mp3,RegPatterns/Noise.mp3,,,,,,,,,,,,,,,,,,,,,,,,,,,
,,,,,,,,,,,,,train37_audtrain2,2023-11-30_01h33.19.271,AudTraining2,2021.2.3,MacIntel,60.0024001,,,,,,,,,,,,space,1.0028,RegPatterns/26-ms_1_1_2_2_1_1_4_unit250.mp3,0,0,0,0,0,1,,,,,,,,,,,,,,,,,,
,,,,,,,,,,,,,train37_audtrain2,2023-11-30_01h33.19.271,AudTraining2,2021.2.3,MacIntel,60.0024001,,,,,,,,,,,,,,RegPatterns/26-ms_1_1_2_2_1_1_4_unit250.mp3,0,1,0,1,0,1,,,,,,,,,,,,,,,,,,
,,,,,,,,,,,,,train37_audtrain2,2023-11-30_01h33.19.271,AudTraining2,2021.2.3,MacIntel,60.0024001,,,,,,,,,,,,,,RegPatterns/26d-ms_1_1_2_1_1_2_4_unit250.mp3,3,2,0,2,0,1,,,,,,,,,,,,,,,,,,
,,,,,,,,,,,,,train37_audtrain2,2023-11-30_01h33.19.271,AudTraining2,2021.2.3,MacIntel,60.0024001,,,,,,,,,,,,,,,,,,,,,1,0.3115,0,0,0,8,1,RegPatterns/26-ms_1_1_2_2_1_1_4_unit250.mp3,RegPatterns/26d-ms_1_1_2_1_1_2_4_unit250.mp3,,,,,,,,,
,,,,,,,,,,,,,train37_audtrain2,2023-11-30_01h33.19.271,AudTraining2,2021.2.3,MacIntel,60.0024001,,,,,,,,,,,,,,RegPatterns/09d-ms_2_1_1_3_1_4_unit270.mp3,1,0,0,0,0,1,,,,,,,,,,,,,,,,,,
,,,,,,,,,,,,,train37_audtrain2,2023-11-30_01h33.19.271,AudTraining2,2021.2.3,MacIntel,60.0024001,,,,,,,,,,,,,,RegPatterns/09-ms_2_1_1_1_3_4_unit270.mp3,0,1,0,1,0,1,,,,,,,,,,,,,,,,,,
,,,,,,,,,,,,,train37_audtrain2,2023-11-30_01h33.19.271,AudTraining2,2021.2.3,MacIntel,60.0024001,,,,,,,,,,,,,,RegPatterns/09-ms_2_1_1_1_3_4_unit270.mp3,0,2,0,2,0,1,,,,,,,,,,,,,,,,,,
,,,,,,,,,,,,,train37_audtrain2,2023-11-30_01h33.19.271,AudTraining2,2021.2.3,MacIntel,60.0024001,,,,,,,,,,,,,,,,,,,,,2,0.323,0,1,1,2,1,RegPatterns/09-ms_2_1_1_1_3_4_unit270.mp3,RegPatterns/09d-ms_2_1_1_3_1_4_unit270.mp3,,,,,,,,,
,,,,,,,,,,,,,train37_audtrain2,2023-11-30_01h33.19.271,AudTraining2,2021.2.3,MacIntel,60.0024001,,,,,,,,,,,,,,RegPatterns/30d-ms_1_3_2_2_1_1_2_unit230.mp3,1,0,0,0,0,1,,,,,,,,,,,,,,,,,,
,,,,,,,,,,,,,train37_audtrain2,2023-11-30_01h33.19.271,AudTraining2,2021.2.3,MacIntel,60.0024001,,,,,,,,,,,,,,RegPatterns/30-ms_3_1_2_2_1_1_2_unit230.mp3,0,1,0,1,0,1,,,,,,,,,,,,,,,,,,
,,,,,,,,,,,,,train37_audtrain2,2023-11-30_01h33.19.271,AudTraining2,2021.2.3,MacIntel,60.0024001,,,,,,,,,,,,,,RegPatterns/30-ms_3_1_2_2_1_1_2_unit230.mp3,0,2,0,2,0,1,,,,,,,,,,,,,,,,,,
,,,,,,,,,,,,,train37_audtrain2,2023-11-30_01h33.19.271,AudTraining2,2021.2.3,MacIntel,60.0024001,,,,,,,,,,,,,,,,,,,,,1,0.3003,0,2,2,10,1,RegPatterns/30-ms_3_1_2_2_1_1_2_unit230.mp3,RegPatterns/30d-ms_1_3_2_2_1_1_2_unit230.mp3,,,,,,,,,
,,,,,,,,,,,,,train37_audtrain2,2023-11-30_01h33.19.271,AudTraining2,2021.2.3,MacIntel,60.0024001,,,,,,,,,,,,,,RegPatterns/18d-ms_4_2_2_2_1_1_unit270.mp3,1,0,0,0,0,1,,,,,,,,,,,,,,,,,,
,,,,,,,,,,,,,train37_audtrain2,2023-11-30_01h33.19.271,AudTraining2,2021.2.3,MacIntel,60.0024001,,,,,,,,,,,,,,RegPatterns/18-ms_4_2_2_1_1_2_unit270.mp3,0,1,0,1,0,1,,,,,,,,,,,,,,,,,,
,,,,,,,,,,,,,train37_audtrain2,2023-11-30_01h33.19.271,AudTraining2,2021.2.3,MacIntel,60.0024001,,,,,,,,,,,,,,RegPatterns/18-ms_4_2_2_1_1_2_unit270.mp3,0,2,0,2,0,1,,,,,,,,,,,,,,,,,,
,,,,,,,,,,,,,train37_audtrain2,2023-11-30_01h33.19.271,AudTraining2,2021.2.3,MacIntel,60.0024001,,,,,,,,,,,,,,,,,,,,,1,0.2745,0,3,3,6,1,RegPatterns/18-ms_4_2_2_1_1_2_unit270.mp3,RegPatterns/18d-ms_4_2_2_2_1_1_unit270.mp3,,,,,,,,,
,,,,,,,,,,,,,train37_audtrain2,2023-11-30_01h33.19.271,AudTraining2,2021.2.3,MacIntel,60.0024001,,,,,,,,,,,,,,RegPatterns/12-ms_3_1_1_3_2_2_unit270.mp3,0,0,0,0,0,1,,,,,,,,,,,,,,,,,,
,,,,,,,,,,,,,train37_audtrain2,2023-11-30_01h33.19.271,AudTraining2,2021.2.3,MacIntel,60.0024001,,,,,,,,,,,,,,RegPatterns/12-ms_3_1_1_3_2_2_unit270.mp3,0,1,0,1,0,1,,,,,,,,,,,,,,,,,,
,,,,,,,,,,,,,train37_audtrain2,2023-11-30_01h33.19.271,AudTraining2,2021.2.3,MacIntel,60.0024001,,,,,,,,,,,,,,RegPatterns/12d-ms_3_1_3_1_2_2_unit270.mp3,3,2,0,2,0,1,,,,,,,,,,,,,,,,,,
,,,,,,,,,,,,,train37_audtrain2,2023-11-30_01h33.19.271,AudTraining2,2021.2.3,MacIntel,60.0024001,,,,,,,,,,,,,,,,,,,,,3,0.3157,0,4,4,3,1,RegPatterns/12-ms_3_1_1_3_2_2_unit270.mp3,RegPatterns/12d-ms_3_1_3_1_2_2_unit270.mp3,,,,,,,,,
,,,,,,,,,,,,,train37_audtrain2,2023-11-30_01h33.19.271,AudTraining2,2021.2.3,MacIntel,60.0024001,,,,,,,,,,,,,,RegPatterns/16-ms_3_1_2_2_1_3_unit230.mp3,0,0,0,0,0,1,,,,,,,,,,,,,,,,,,
,,,,,,,,,,,,,train37_audtrain2,2023-11-30_01h33.19.271,AudTraining2,2021.2.3,MacIntel,60.0024001,,,,,,,,,,,,,,RegPatterns/16d-ms_3_1_2_2_3_1_unit230.mp3,2,1,0,1,0,1,,,,,,,,,,,,,,,,,,
,,,,,,,,,,,,,train37_audtrain2,2023-11-30_01h33.19.271,AudTraining2,2021.2.3,MacIntel,60.0024001,,,,,,,,,,,,,,RegPatterns/16-ms_3_1_2_2_1_3_unit230.mp3,0,2,0,2,0,1,,,,,,,,,,,,,,,,,,
,,,,,,,,,,,,,train37_audtrain2,2023-11-30_01h33.19.271,AudTraining2,2021.2.3,MacIntel,60.0024001,,,,,,,,,,,,,,,,,,,,,2,0.286,0,5,5,5,1,RegPatterns/16-ms_3_1_2_2_1_3_unit230.mp3,RegPatterns/16d-ms_3_1_2_2_3_1_unit230.mp3,,,,,,,,,
,,,,,,,,,,,,,train37_audtrain2,2023-11-30_01h33.19.271,AudTraining2,2021.2.3,MacIntel,60.0024001,,,,,,,,,,,,,,RegPatterns/03-ms_3_1_4_2_2_unit270.mp3,0,0,0,0,0,1,,,,,,,,,,,,,,,,,,
,,,,,,,,,,,,,train37_audtrain2,2023-11-30_01h33.19.271,AudTraining2,2021.2.3,MacIntel,60.0024001,,,,,,,,,,,,,,RegPatterns/03d-ms_1_3_4_2_2_unit270.mp3,2,1,0,1,0,1,,,,,,,,,,,,,,,,,,
,,,,,,,,,,,,,train37_audtrain2,2023-11-30_01h33.19.271,AudTraining2,2021.2.3,MacIntel,60.0024001,,,,,,,,,,,,,,RegPatterns/03-ms_3_1_4_2_2_unit270.mp3,0,2,0,2,0,1,,,,,,,,,,,,,,,,,,
,,,,,,,,,,,,,train37_audtrain2,2023-11-30_01h33.19.271,AudTraining2,2021.2.3,MacIntel,60.0024001,,,,,,,,,,,,,,,,,,,,,2,0.206,0,6,6,1,1,RegPatterns/03-ms_3_1_4_2_2_unit270.mp3,RegPatterns/03d-ms_1_3_4_2_2_unit270.mp3,,,,,,,,,
,,,,,,,,,,,,,train37_audtrain2,2023-11-30_01h33.19.271,AudTraining2,2021.2.3,MacIntel,60.0024001,,,,,,,,,,,,,,RegPatterns/02-ms_3_1_4_1_3_unit250.mp3,0,0,0,0,0,1,,,,,,,,,,,,,,,,,,
,,,,,,,,,,,,,train37_audtrain2,2023-11-30_01h33.19.271,AudTraining2,2021.2.3,MacIntel,60.0024001,,,,,,,,,,,,,,RegPatterns/02d-ms_3_1_4_3_1_unit250.mp3,2,1,0,1,0,1,,,,,,,,,,,,,,,,,,
,,,,,,,,,,,,,train37_audtrain2,2023-11-30_01h33.19.271,AudTraining2,2021.2.3,MacIntel,60.0024001,,,,,,,,,,,,,,RegPatterns/02-ms_3_1_4_1_3_unit250.mp3,0,2,0,2,0,1,,,,,,,,,,,,,,,,,,
,,,,,,,,,,,,,train37_audtrain2,2023-11-30_01h33.19.271,AudTraining2,2021.2.3,MacIntel,60.0024001,,,,,,,,,,,,,,,,,,,,,2,1.36,0,7,7,0,1,RegPatterns/02-ms_3_1_4_1_3_unit250.mp3,RegPatterns/02d-ms_3_1_4_3_1_unit250.mp3,,,,,,,,,
,,,,,,,,,,,,,train37_audtrain2,2023-11-30_01h33.19.271,AudTraining2,2021.2.3,MacIntel,60.0024001,,,,,,,,,,,,,,RegPatterns/29-ms_3_1_2_1_1_1_3_unit250.mp3,0,0,0,0,0,1,,,,,,,,,,,,,,,,,,
,,,,,,,,,,,,,train37_audtrain2,2023-11-30_01h33.19.271,AudTraining2,2021.2.3,MacIntel,60.0024001,,,,,,,,,,,,,,RegPatterns/29-ms_3_1_2_1_1_1_3_unit250.mp3,0,1,0,1,0,1,,,,,,,,,,,,,,,,,,
,,,,,,,,,,,,,train37_audtrain2,2023-11-30_01h33.19.271,AudTraining2,2021.2.3,MacIntel,60.0024001,,,,,,,,,,,,,,RegPatterns/29d-ms_3_1_2_1_1_3_1_unit250.mp3,3,2,0,2,0,1,,,,,,,,,,,,,,,,,,
,,,,,,,,,,,,,train37_audtrain2,2023-11-30_01h33.19.271,AudTraining2,2021.2.3,MacIntel,60.0024001,,,,,,,,,,,,,,,,,,,,,3,0.085,0,8,8,9,1,RegPatterns/29-ms_3_1_2_1_1_1_3_unit250.mp3,RegPatterns/29d-ms_3_1_2_1_1_3_1_unit250.mp3,,,,,,,,,
,,,,,,,,,,,,,train37_audtrain2,2023-11-30_01h33.19.271,AudTraining2,2021.2.3,MacIntel,60.0024001,,,,,,,,,,,,,,RegPatterns/14-ms_2_1_1_4_1_3_unit250.mp3,0,0,0,0,0,1,,,,,,,,,,,,,,,,,,
,,,,,,,,,,,,,train37_audtrain2,2023-11-30_01h33.19.271,AudTraining2,2021.2.3,MacIntel,60.0024001,,,,,,,,,,,,,,RegPatterns/14d-ms_2_1_1_4_3_1_unit250.mp3,2,1,0,1,0,1,,,,,,,,,,,,,,,,,,
,,,,,,,,,,,,,train37_audtrain2,2023-11-30_01h33.19.271,AudTraining2,2021.2.3,MacIntel,60.0024001,,,,,,,,,,,,,,RegPatterns/14-ms_2_1_1_4_1_3_unit250.mp3,0,2,0,2,0,1,,,,,,,,,,,,,,,,,,
,,,,,,,,,,,,,train37_audtrain2,2023-11-30_01h33.19.271,AudTraining2,2021.2.3,MacIntel,60.0024001,,,,,,,,,,,,,,,,,,,,,1,3.7339,0,9,9,4,1,RegPatterns/14-ms_2_1_1_4_1_3_unit250.mp3,RegPatterns/14d-ms_2_1_1_4_3_1_unit250.mp3,,,,,,,,,
,,,,,,,,,,,,,train37_audtrain2,2023-11-30_01h33.19.271,AudTraining2,2021.2.3,MacIntel,60.0024001,,,,,,,,,,,,,,RegPatterns/19d-ms_1_1_2_1_3_2_2_unit230.mp3,1,0,0,0,0,1,,,,,,,,,,,,,,,,,,
,,,,,,,,,,,,,train37_audtrain2,2023-11-30_01h33.19.271,AudTraining2,2021.2.3,MacIntel,60.0024001,,,,,,,,,,,,,,RegPatterns/19-ms_1_1_2_3_1_2_2_unit230.mp3,0,1,0,1,0,1,,,,,,,,,,,,,,,,,,
,,,,,,,,,,,,,train37_audtrain2,2023-11-30_01h33.19.271,AudTraining2,2021.2.3,MacIntel,60.0024001,,,,,,,,,,,,,,RegPatterns/19-ms_1_1_2_3_1_2_2_unit230.mp3,0,2,0,2,0,1,,,,,,,,,,,,,,,,,,
,,,,,,,,,,,,,train37_audtrain2,2023-11-30_01h33.19.271,AudTraining2,2021.2.3,MacIntel,60.0024001,,,,,,,,,,,,,,,,,,,,,1,0.3529,0,10,10,7,1,RegPatterns/19-ms_1_1_2_3_1_2_2_unit230.mp3,RegPatterns/19d-ms_1_1_2_1_3_2_2_unit230.mp3,,,,,,,,,
,,,,,,,,,,,,,train37_audtrain2,2023-11-30_01h33.19.271,AudTraining2,2021.2.3,MacIntel,60.0024001,,,,,,,,,,,,,,RegPatterns/20-ms_2_1_1_2_2_3_1_unit230.mp3,0,0,0,0,0,1,,,,,,,,,,,,,,,,,,
,,,,,,,,,,,,,train37_audtrain2,2023-11-30_01h33.19.271,AudTraining2,2021.2.3,MacIntel,60.0024001,,,,,,,,,,,,,,RegPatterns/20-ms_2_1_1_2_2_3_1_unit230.mp3,0,1,0,1,0,1,,,,,,,,,,,,,,,,,,
,,,,,,,,,,,,,train37_audtrain2,2023-11-30_01h33.19.271,AudTraining2,2021.2.3,MacIntel,60.0024001,,,,,,,,,,,,,,RegPatterns/20d-ms_2_1_1_2_2_1_3_unit230.mp3,3,2,0,2,0,1,,,,,,,,,,,,,,,,,,
,,,,,,,,,,,,,train37_audtrain2,2023-11-30_01h33.19.271,AudTraining2,2021.2.3,MacIntel,60.0024001,,,,,,,,,,RegPatterns/Noise.mp3,RegPatterns/Noise.mp3,,,,,,,,,,3,0.1672,,,,,,,,g,0.3539,0,0,0,0,1,,
,,,,,,,,,,,,,train37_audtrain2,2023-11-30_01h33.19.271,AudTraining2,2021.2.3,MacIntel,60.0024001,,,,,,,,,,,,,,,,,,,,,,,0,11,11,11,1,RegPatterns/20-ms_2_1_1_2_2_3_1_unit230.mp3,RegPatterns/20d-ms_2_1_1_2_2_1_3_unit230.mp3,,,,,,,,,
,,,,,,,,,,,,,train37_audtrain2,2023-11-30_01h33.19.271,AudTraining2,2021.2.3,MacIntel,60.0024001,,,,,,,,,,,,,,RegPatterns/02d-ms_3_1_4_3_1_unit250.mp3,1,0,0,0,0,1,,,,,,,,,,,,,,,,,,
,,,,,,,,,,,,,train37_audtrain2,2023-11-30_01h33.19.271,AudTraining2,2021.2.3,MacIntel,60.0024001,,,,,,,,,,,,,,RegPatterns/02-ms_3_1_4_1_3_unit250.mp3,0,1,0,1,0,1,,,,,,,,,,,,,,,,,,
,,,,,,,,,,,,,train37_audtrain2,2023-11-30_01h33.19.271,AudTraining2,2021.2.3,MacIntel,60.0024001,,,,,,,,,,,,,,RegPatterns/02-ms_3_1_4_1_3_unit250.mp3,0,2,0,2,0,1,,,,,,,,,,,,,,,,,,
,,,,,,,,,,,,,train37_audtrain2,2023-11-30_01h33.19.271,AudTraining2,2021.2.3,MacIntel,60.0024001,,,,,,,,,,,,,,,,,,,,,1,1.3668,1,0,12,0,1,RegPatterns/02-ms_3_1_4_1_3_unit250.mp3,RegPatterns/02d-ms_3_1_4_3_1_unit250.mp3,,,,,,,,,
,,,,,,,,,,,,,train37_audtrain2,2023-11-30_01h33.19.271,AudTraining2,2021.2.3,MacIntel,60.0024001,,,,,,,,,,,,,,RegPatterns/18-ms_4_2_2_1_1_2_unit270.mp3,0,0,0,0,0,1,,,,,,,,,,,,,,,,,,
,,,,,,,,,,,,,train37_audtrain2,2023-11-30_01h33.19.271,AudTraining2,2021.2.3,MacIntel,60.0024001,,,,,,,,,,,,,,RegPatterns/18-ms_4_2_2_1_1_2_unit270.mp3,0,1,0,1,0,1,,,,,,,,,,,,,,,,,,
,,,,,,,,,,,,,train37_audtrain2,2023-11-30_01h33.19.271,AudTraining2,2021.2.3,MacIntel,60.0024001,,,,,,,,,,,,,,RegPatterns/18d-ms_4_2_2_2_1_1_unit270.mp3,3,2,0,2,0,1,,,,,,,,,,,,,,,,,,
,,,,,,,,,,,,,train37_audtrain2,2023-11-30_01h33.19.271,AudTraining2,2021.2.3,MacIntel,60.0024001,,,,,,,,,,,,,,,,,,,,,3,0.4023,1,1,13,6,1,RegPatterns/18-ms_4_2_2_1_1_2_unit270.mp3,RegPatterns/18d-ms_4_2_2_2_1_1_unit270.mp3,,,,,,,,,
,,,,,,,,,,,,,train37_audtrain2,2023-11-30_01h33.19.271,AudTraining2,2021.2.3,MacIntel,60.0024001,,,,,,,,,,,,,,RegPatterns/29d-ms_3_1_2_1_1_3_1_unit250.mp3,1,0,0,0,0,1,,,,,,,,,,,,,,,,,,
,,,,,,,,,,,,,train37_audtrain2,2023-11-30_01h33.19.271,AudTraining2,2021.2.3,MacIntel,60.0024001,,,,,,,,,,,,,,RegPatterns/29-ms_3_1_2_1_1_1_3_unit250.mp3,0,1,0,1,0,1,,,,,,,,,,,,,,,,,,
,,,,,,,,,,,,,train37_audtrain2,2023-11-30_01h33.19.271,AudTraining2,2021.2.3,MacIntel,60.0024001,,,,,,,,,,,,,,RegPatterns/29-ms_3_1_2_1_1_1_3_unit250.mp3,0,2,0,2,0,1,,,,,,,,,,,,,,,,,,
,,,,,,,,,,,,,train37_audtrain2,2023-11-30_01h33.19.271,AudTraining2,2021.2.3,MacIntel,60.0024001,,,,,,,,,,,,,,,,,,,,,1,0.3556,1,2,14,9,1,RegPatterns/29-ms_3_1_2_1_1_1_3_unit250.mp3,RegPatterns/29d-ms_3_1_2_1_1_3_1_unit250.mp3,,,,,,,,,
,,,,,,,,,,,,,train37_audtrain2,2023-11-30_01h33.19.271,AudTraining2,2021.2.3,MacIntel,60.0024001,,,,,,,,,,,,,,RegPatterns/19-ms_1_1_2_3_1_2_2_unit230.mp3,0,0,0,0,0,1,,,,,,,,,,,,,,,,,,
,,,,,,,,,,,,,train37_audtrain2,2023-11-30_01h33.19.271,AudTraining2,2021.2.3,MacIntel,60.0024001,,,,,,,,,,,,,,RegPatterns/19-ms_1_1_2_3_1_2_2_unit230.mp3,0,1,0,1,0,1,,,,,,,,,,,,,,,,,,
,,,,,,,,,,,,,train37_audtrain2,2023-11-30_01h33.19.271,AudTraining2,2021.2.3,MacIntel,60.0024001,,,,,,,,,,,,,,RegPatterns/19d-ms_1_1_2_1_3_2_2_unit230.mp3,3,2,0,2,0,1,,,,,,,,,,,,,,,,,,
,,,,,,,,,,,,,train37_audtrain2,2023-11-30_01h33.19.271,AudTraining2,2021.2.3,MacIntel,60.0024001,,,,,,,,,,,,,,,,,,,,,3,0.1543,1,3,15,7,1,RegPatterns/19-ms_1_1_2_3_1_2_2_unit230.mp3,RegPatterns/19d-ms_1_1_2_1_3_2_2_unit230.mp3,,,,,,,,,
,,,,,,,,,,,,,train37_audtrain2,2023-11-30_01h33.19.271,AudTraining2,2021.2.3,MacIntel,60.0024001,,,,,,,,,,,,,,RegPatterns/30-ms_3_1_2_2_1_1_2_unit230.mp3,0,0,0,0,0,1,,,,,,,,,,,,,,,,,,
,,,,,,,,,,,,,train37_audtrain2,2023-11-30_01h33.19.271,AudTraining2,2021.2.3,MacIntel,60.0024001,,,,,,,,,,,,,,RegPatterns/30-ms_3_1_2_2_1_1_2_unit230.mp3,0,1,0,1,0,1,,,,,,,,,,,,,,,,,,
,,,,,,,,,,,,,train37_audtrain2,2023-11-30_01h33.19.271,AudTraining2,2021.2.3,MacIntel,60.0024001,,,,,,,,,,,,,,RegPatterns/30d-ms_1_3_2_2_1_1_2_unit230.mp3,3,2,0,2,0,1,,,,,,,,,,,,,,,,,,
,,,,,,,,,,,,,train37_audtrain2,2023-11-30_01h33.19.271,AudTraining2,2021.2.3,MacIntel,60.0024001,,,,,,,,,,,,,,,,,,,,,3,0.1864,1,4,16,10,1,RegPatterns/30-ms_3_1_2_2_1_1_2_unit230.mp3,RegPatterns/30d-ms_1_3_2_2_1_1_2_unit230.mp3,,,,,,,,,
,,,,,,,,,,,,,train37_audtrain2,2023-11-30_01h33.19.271,AudTraining2,2021.2.3,MacIntel,60.0024001,,,,,,,,,,,,,,RegPatterns/26d-ms_1_1_2_1_1_2_4_unit250.mp3,1,0,0,0,0,1,,,,,,,,,,,,,,,,,,
,,,,,,,,,,,,,train37_audtrain2,2023-11-30_01h33.19.271,AudTraining2,2021.2.3,MacIntel,60.0024001,,,,,,,,,,,,,,RegPatterns/26-ms_1_1_2_2_1_1_4_unit250.mp3,0,1,0,1,0,1,,,,,,,,,,,,,,,,,,
,,,,,,,,,,,,,train37_audtrain2,2023-11-30_01h33.19.271,AudTraining2,2021.2.3,MacIntel,60.0024001,,,,,,,,,,,,,,RegPatterns/26-ms_1_1_2_2_1_1_4_unit250.mp3,0,2,0,2,0,1,,,,,,,,,,,,,,,,,,
,,,,,,,,,,,,,train37_audtrain2,2023-11-30_01h33.19.271,AudTraining2,2021.2.3,MacIntel,60.0024001,,,,,,,,,,,,,,,,,,,,,1,0.2832,1,5,17,8,1,RegPatterns/26-ms_1_1_2_2_1_1_4_unit250.mp3,RegPatterns/26d-ms_1_1_2_1_1_2_4_unit250.mp3,,,,,,,,,
,,,,,,,,,,,,,train37_audtrain2,2023-11-30_01h33.19.271,AudTraining2,2021.2.3,MacIntel,60.0024001,,,,,,,,,,,,,,RegPatterns/09-ms_2_1_1_1_3_4_unit270.mp3,0,0,0,0,0,1,,,,,,,,,,,,,,,,,,
,,,,,,,,,,,,,train37_audtrain2,2023-11-30_01h33.19.271,AudTraining2,2021.2.3,MacIntel,60.0024001,,,,,,,,,,,,,,RegPatterns/09-ms_2_1_1_1_3_4_unit270.mp3,0,1,0,1,0,1,,,,,,,,,,,,,,,,,,
,,,,,,,,,,,,,train37_audtrain2,2023-11-30_01h33.19.271,AudTraining2,2021.2.3,MacIntel,60.0024001,,,,,,,,,,,,,,RegPatterns/09d-ms_2_1_1_3_1_4_unit270.mp3,3,2,0,2,0,1,,,,,,,,,,,,,,,,,,
,,,,,,,,,,,,,train37_audtrain2,2023-11-30_01h33.19.271,AudTraining2,2021.2.3,MacIntel,60.0024001,,,,,,,,,,,,,,,,,,,,,3,0.3544,1,6,18,2,1,RegPatterns/09-ms_2_1_1_1_3_4_unit270.mp3,RegPatterns/09d-ms_2_1_1_3_1_4_unit270.mp3,,,,,,,,,
,,,,,,,,,,,,,train37_audtrain2,2023-11-30_01h33.19.271,AudTraining2,2021.2.3,MacIntel,60.0024001,,,,,,,,,,,,,,RegPatterns/12d-ms_3_1_3_1_2_2_unit270.mp3,1,0,0,0,0,1,,,,,,,,,,,,,,,,,,
,,,,,,,,,,,,,train37_audtrain2,2023-11-30_01h33.19.271,AudTraining2,2021.2.3,MacIntel,60.0024001,,,,,,,,,,,,,,RegPatterns/12-ms_3_1_1_3_2_2_unit270.mp3,0,1,0,1,0,1,,,,,,,,,,,,,,,,,,
,,,,,,,,,,,,,train37_audtrain2,2023-11-30_01h33.19.271,AudTraining2,2021.2.3,MacIntel,60.0024001,,,,,,,,,,,,,,RegPatterns/12-ms_3_1_1_3_2_2_unit270.mp3,0,2,0,2,0,1,,,,,,,,,,,,,,,,,,
,,,,,,,,,,,,,train37_audtrain2,2023-11-30_01h33.19.271,AudTraining2,2021.2.3,MacIntel,60.0024001,,,,,,,,,,,,,,,,,,,,,1,0.1537,1,7,19,3,1,RegPatterns/12-ms_3_1_1_3_2_2_unit270.mp3,RegPatterns/12d-ms_3_1_3_1_2_2_unit270.mp3,,,,,,,,,
,,,,,,,,,,,,,train37_audtrain2,2023-11-30_01h33.19.271,AudTraining2,2021.2.3,MacIntel,60.0024001,,,,,,,,,,,,,,RegPatterns/20-ms_2_1_1_2_2_3_1_unit230.mp3,0,0,0,0,0,1,,,,,,,,,,,,,,,,,,
,,,,,,,,,,,,,train37_audtrain2,2023-11-30_01h33.19.271,AudTraining2,2021.2.3,MacIntel,60.0024001,,,,,,,,,,,,,,RegPatterns/20d-ms_2_1_1_2_2_1_3_unit230.mp3,2,1,0,1,0,1,,,,,,,,,,,,,,,,,,
,,,,,,,,,,,,,train37_audtrain2,2023-11-30_01h33.19.271,AudTraining2,2021.2.3,MacIntel,60.0024001,,,,,,,,,,,,,,RegPatterns/20-ms_2_1_1_2_2_3_1_unit230.mp3,0,2,0,2,0,1,,,,,,,,,,,,,,,,,,
,,,,,,,,,,,,,train37_audtrain2,2023-11-30_01h33.19.271,AudTraining2,2021.2.3,MacIntel,60.0024001,,,,,,,,,,,,,,,,,,,,,2,0.1532,1,8,20,11,1,RegPatterns/20-ms_2_1_1_2_2_3_1_unit230.mp3,RegPatterns/20d-ms_2_1_1_2_2_1_3_unit230.mp3,,,,,,,,,
,,,,,,,,,,,,,train37_audtrain2,2023-11-30_01h33.19.271,AudTraining2,2021.2.3,MacIntel,60.0024001,,,,,,,,,,,,,,RegPatterns/16-ms_3_1_2_2_1_3_unit230.mp3,0,0,0,0,0,1,,,,,,,,,,,,,,,,,,
,,,,,,,,,,,,,train37_audtrain2,2023-11-30_01h33.19.271,AudTraining2,2021.2.3,MacIntel,60.0024001,,,,,,,,,,,,,,RegPatterns/16-ms_3_1_2_2_1_3_unit230.mp3,0,1,0,1,0,1,,,,,,,,,,,,,,,,,,
,,,,,,,,,,,,,train37_audtrain2,2023-11-30_01h33.19.271,AudTraining2,2021.2.3,MacIntel,60.0024001,,,,,,,,,,,,,,RegPatterns/16d-ms_3_1_2_2_3_1_unit230.mp3,3,2,0,2,0,1,,,,,,,,,,,,,,,,,,
,,,,,,,,,,,,,train37_audtrain2,2023-11-30_01h33.19.271,AudTraining2,2021.2.3,MacIntel,60.0024001,,,,,,,,,,,,,,,,,,,,,2,0.3236,1,9,21,5,1,RegPatterns/16-ms_3_1_2_2_1_3_unit230.mp3,RegPatterns/16d-ms_3_1_2_2_3_1_unit230.mp3,,,,,,,,,
,,,,,,,,,,,,,train37_audtrain2,2023-11-30_01h33.19.271,AudTraining2,2021.2.3,MacIntel,60.0024001,,,,,,,,,,,,,,RegPatterns/14-ms_2_1_1_4_1_3_unit250.mp3,0,0,0,0,0,1,,,,,,,,,,,,,,,,,,
,,,,,,,,,,,,,train37_audtrain2,2023-11-30_01h33.19.271,AudTraining2,2021.2.3,MacIntel,60.0024001,,,,,,,,,,,,,,RegPatterns/14-ms_2_1_1_4_1_3_unit250.mp3,0,1,0,1,0,1,,,,,,,,,,,,,,,,,,
,,,,,,,,,,,,,train37_audtrain2,2023-11-30_01h33.19.271,AudTraining2,2021.2.3,MacIntel,60.0024001,,,,,,,,,,,,,,RegPatterns/14d-ms_2_1_1_4_3_1_unit250.mp3,3,2,0,2,0,1,,,,,,,,,,,,,,,,,,
,,,,,,,,,,,,,train37_audtrain2,2023-11-30_01h33.19.271,AudTraining2,2021.2.3,MacIntel,60.0024001,,,,,,,,,,,,,,,,,,,,,2,0.269,1,10,22,4,1,RegPatterns/14-ms_2_1_1_4_1_3_unit250.mp3,RegPatterns/14d-ms_2_1_1_4_3_1_unit250.mp3,,,,,,,,,
,,,,,,,,,,,,,train37_audtrain2,2023-11-30_01h33.19.271,AudTraining2,2021.2.3,MacIntel,60.0024001,,,,,,,,,,,,,,RegPatterns/03-ms_3_1_4_2_2_unit270.mp3,0,0,0,0,0,1,,,,,,,,,,,,,,,,,,
,,,,,,,,,,,,,train37_audtrain2,2023-11-30_01h33.19.271,AudTraining2,2021.2.3,MacIntel,60.0024001,,,,,,,,,,,,,,RegPatterns/03-ms_3_1_4_2_2_unit270.mp3,0,1,0,1,0,1,,,,,,,,,,,,,,,,,,
,,,,,,,,,,,,,train37_audtrain2,2023-11-30_01h33.19.271,AudTraining2,2021.2.3,MacIntel,60.0024001,,,,,,,,,,,,,,RegPatterns/03d-ms_1_3_4_2_2_unit270.mp3,3,2,0,2,0,1,,,,,,,,,,,,,,,,,,
,,,,,,,,,,,,,train37_audtrain2,2023-11-30_01h33.19.271,AudTraining2,2021.2.3,MacIntel,60.0024001,,,,,,,,,,,,,,,,,,,,,3,0.2063,1,11,23,1,1,RegPatterns/03-ms_3_1_4_2_2_unit270.mp3,RegPatterns/03d-ms_1_3_4_2_2_unit270.mp3,,,,,,,,,
,,,,,,,,,,,,,train37_audtrain2,2023-11-30_01h33.19.271,AudTraining2,2021.2.3,MacIntel,60.0024001,,,,,,,,,,,,,,RegPatterns/02-ms_3_1_4_1_3_unit250.mp3,0,0,0,0,0,1,,,,,,,,,,,,,,,,,,
,,,,,,,,,,,,,train37_audtrain2,2023-11-30_01h33.19.271,AudTraining2,2021.2.3,MacIntel,60.0024001,,,,,,,,,,,,,,RegPatterns/02-ms_3_1_4_1_3_unit250.mp3,0,1,0,1,0,1,,,,,,,,,,,,,,,,,,
,,,,,,,,,,,,,train37_audtrain2,2023-11-30_01h33.19.271,AudTraining2,2021.2.3,MacIntel,60.0024001,,,,,,,,,,,,,,RegPatterns/02d-ms_3_1_4_3_1_unit250.mp3,3,2,0,2,0,1,,,,,,,,,,,,,,,,,,
,,,,,,,,,,,,,train37_audtrain2,2023-11-30_01h33.19.271,AudTraining2,2021.2.3,MacIntel,60.0024001,,,,,,,,,,RegPatterns/Noise.mp3,RegPatterns/Noise.mp3,,,,,,,,,,3,0.2762,,,,,,,,g,0.4251,0,0,0,0,1,,
,,,,,,,,,,,,,train37_audtrain2,2023-11-30_01h33.19.271,AudTraining2,2021.2.3,MacIntel,60.0024001,,,,,,,,,,,,,,,,,,,,,,,2,0,24,0,1,RegPatterns/02-ms_3_1_4_1_3_unit250.mp3,RegPatterns/02d-ms_3_1_4_3_1_unit250.mp3,,,,,,,,,
,,,,,,,,,,,,,train37_audtrain2,2023-11-30_01h33.19.271,AudTraining2,2021.2.3,MacIntel,60.0024001,,,,,,,,,,,,,,RegPatterns/20d-ms_2_1_1_2_2_1_3_unit230.mp3,1,0,0,0,0,1,,,,,,,,,,,,,,,,,,
,,,,,,,,,,,,,train37_audtrain2,2023-11-30_01h33.19.271,AudTraining2,2021.2.3,MacIntel,60.0024001,,,,,,,,,,,,,,RegPatterns/20-ms_2_1_1_2_2_3_1_unit230.mp3,0,1,0,1,0,1,,,,,,,,,,,,,,,,,,
,,,,,,,,,,,,,train37_audtrain2,2023-11-30_01h33.19.271,AudTraining2,2021.2.3,MacIntel,60.0024001,,,,,,,,,,,,,,RegPatterns/20-ms_2_1_1_2_2_3_1_unit230.mp3,0,2,0,2,0,1,,,,,,,,,,,,,,,,,,
,,,,,,,,,,,,,train37_audtrain2,2023-11-30_01h33.19.271,AudTraining2,2021.2.3,MacIntel,60.0024001,,,,,,,,,,,,,,,,,,,,,1,0.1726,2,1,25,11,1,RegPatterns/20-ms_2_1_1_2_2_3_1_unit230.mp3,RegPatterns/20d-ms_2_1_1_2_2_1_3_unit230.mp3,,,,,,,,,
,,,,,,,,,,,,,train37_audtrain2,2023-11-30_01h33.19.271,AudTraining2,2021.2.3,MacIntel,60.0024001,,,,,,,,,,,,,,RegPatterns/29-ms_3_1_2_1_1_1_3_unit250.mp3,0,0,0,0,0,1,,,,,,,,,,,,,,,,,,
,,,,,,,,,,,,,train37_audtrain2,2023-11-30_01h33.19.271,AudTraining2,2021.2.3,MacIntel,60.0024001,,,,,,,,,,,,,,RegPatterns/29d-ms_3_1_2_1_1_3_1_unit250.mp3,2,1,0,1,0,1,,,,,,,,,,,,,,,,,,
,,,,,,,,,,,,,train37_audtrain2,2023-11-30_01h33.19.271,AudTraining2,2021.2.3,MacIntel,60.0024001,,,,,,,,,,,,,,RegPatterns/29-ms_3_1_2_1_1_1_3_unit250.mp3,0,2,0,2,0,1,,,,,,,,,,,,,,,,,,
,,,,,,,,,,,,,train37_audtrain2,2023-11-30_01h33.19.271,AudTraining2,2021.2.3,MacIntel,60.0024001,,,,,,,,,,,,,,,,,,,,,2,0.046,2,2,26,9,1,RegPatterns/29-ms_3_1_2_1_1_1_3_unit250.mp3,RegPatterns/29d-ms_3_1_2_1_1_3_1_unit250.mp3,,,,,,,,,
,,,,,,,,,,,,,train37_audtrain2,2023-11-30_01h33.19.271,AudTraining2,2021.2.3,MacIntel,60.0024001,,,,,,,,,,,,,,RegPatterns/16d-ms_3_1_2_2_3_1_unit230.mp3,1,0,0,0,0,1,,,,,,,,,,,,,,,,,,
,,,,,,,,,,,,,train37_audtrain2,2023-11-30_01h33.19.271,AudTraining2,2021.2.3,MacIntel,60.0024001,,,,,,,,,,,,,,RegPatterns/16-ms_3_1_2_2_1_3_unit230.mp3,0,1,0,1,0,1,,,,,,,,,,,,,,,,,,
,,,,,,,,,,,,,train37_audtrain2,2023-11-30_01h33.19.271,AudTraining2,2021.2.3,MacIntel,60.0024001,,,,,,,,,,,,,,RegPatterns/16-ms_3_1_2_2_1_3_unit230.mp3,0,2,0,2,0,1,,,,,,,,,,,,,,,,,,
,,,,,,,,,,,,,train37_audtrain2,2023-11-30_01h33.19.271,AudTraining2,2021.2.3,MacIntel,60.0024001,,,,,,,,,,,,,,,,,,,,,2,0.1628,2,3,27,5,1,RegPatterns/16-ms_3_1_2_2_1_3_unit230.mp3,RegPatterns/16d-ms_3_1_2_2_3_1_unit230.mp3,,,,,,,,,
,,,,,,,,,,,,,train37_audtrain2,2023-11-30_01h33.19.271,AudTraining2,2021.2.3,MacIntel,60.0024001,,,,,,,,,,,,,,RegPatterns/03d-ms_1_3_4_2_2_unit270.mp3,1,0,0,0,0,1,,,,,,,,,,,,,,,,,,
,,,,,,,,,,,,,train37_audtrain2,2023-11-30_01h33.19.271,AudTraining2,2021.2.3,MacIntel,60.0024001,,,,,,,,,,,,,,RegPatterns/03-ms_3_1_4_2_2_unit270.mp3,0,1,0,1,0,1,,,,,,,,,,,,,,,,,,
,,,,,,,,,,,,,train37_audtrain2,2023-11-30_01h33.19.271,AudTraining2,2021.2.3,MacIntel,60.0024001,,,,,,,,,,,,,,RegPatterns/03-ms_3_1_4_2_2_unit270.mp3,0,2,0,2,0,1,,,,,,,,,,,,,,,,,,
,,,,,,,,,,,,,train37_audtrain2,2023-11-30_01h33.19.271,AudTraining2,2021.2.3,MacIntel,60.0024001,,,,,,,,,,,,,,,,,,,,,1,0.2113,2,4,28,1,1,RegPatterns/03-ms_3_1_4_2_2_unit270.mp3,RegPatterns/03d-ms_1_3_4_2_2_unit270.mp3,,,,,,,,,
,,,,,,,,,,,,,train37_audtrain2,2023-11-30_01h33.19.271,AudTraining2,2021.2.3,MacIntel,60.0024001,,,,,,,,,,,,,,RegPatterns/19-ms_1_1_2_3_1_2_2_unit230.mp3,0,0,0,0,0,1,,,,,,,,,,,,,,,,,,
,,,,,,,,,,,,,train37_audtrain2,2023-11-30_01h33.19.271,AudTraining2,2021.2.3,MacIntel,60.0024001,,,,,,,,,,,,,,RegPatterns/19d-ms_1_1_2_1_3_2_2_unit230.mp3,2,1,0,1,0,1,,,,,,,,,,,,,,,,,,
,,,,,,,,,,,,,train37_audtrain2,2023-11-30_01h33.19.271,AudTraining2,2021.2.3,MacIntel,60.0024001,,,,,,,,,,,,,,RegPatterns/19-ms_1_1_2_3_1_2_2_unit230.mp3,0,2,0,2,0,1,,,,,,,,,,,,,,,,,,
,,,,,,,,,,,,,train37_audtrain2,2023-11-30_01h33.19.271,AudTraining2,2021.2.3,MacIntel,60.0024001,,,,,,,,,,,,,,,,,,,,,2,0.2637,2,5,29,7,1,RegPatterns/19-ms_1_1_2_3_1_2_2_unit230.mp3,RegPatterns/19d-ms_1_1_2_1_3_2_2_unit230.mp3,,,,,,,,,
,,,,,,,,,,,,,train37_audtrain2,2023-11-30_01h33.19.271,AudTraining2,2021.2.3,MacIntel,60.0024001,,,,,,,,,,,,,,RegPatterns/12-ms_3_1_1_3_2_2_unit270.mp3,0,0,0,0,0,1,,,,,,,,,,,,,,,,,,
,,,,,,,,,,,,,train37_audtrain2,2023-11-30_01h33.19.271,AudTraining2,2021.2.3,MacIntel,60.0024001,,,,,,,,,,,,,,RegPatterns/12d-ms_3_1_3_1_2_2_unit270.mp3,2,1,0,1,0,1,,,,,,,,,,,,,,,,,,
,,,,,,,,,,,,,train37_audtrain2,2023-11-30_01h33.19.271,AudTraining2,2021.2.3,MacIntel,60.0024001,,,,,,,,,,,,,,RegPatterns/12-ms_3_1_1_3_2_2_unit270.mp3,0,2,0,2,0,1,,,,,,,,,,,,,,,,,,
,,,,,,,,,,,,,train37_audtrain2,2023-11-30_01h33.19.271,AudTraining2,2021.2.3,MacIntel,60.0024001,,,,,,,,,,,,,,,,,,,,,2,0.0908,2,6,30,3,1,RegPatterns/12-ms_3_1_1_3_2_2_unit270.mp3,RegPatterns/12d-ms_3_1_3_1_2_2_unit270.mp3,,,,,,,,,
,,,,,,,,,,,,,train37_audtrain2,2023-11-30_01h33.19.271,AudTraining2,2021.2.3,MacIntel,60.0024001,,,,,,,,,,,,,,RegPatterns/09-ms_2_1_1_1_3_4_unit270.mp3,0,0,0,0,0,1,,,,,,,,,,,,,,,,,,
,,,,,,,,,,,,,train37_audtrain2,2023-11-30_01h33.19.271,AudTraining2,2021.2.3,MacIntel,60.0024001,,,,,,,,,,,,,,RegPatterns/09d-ms_2_1_1_3_1_4_unit270.mp3,2,1,0,1,0,1,,,,,,,,,,,,,,,,,,
,,,,,,,,,,,,,train37_audtrain2,2023-11-30_01h33.19.271,AudTraining2,2021.2.3,MacIntel,60.0024001,,,,,,,,,,,,,,RegPatterns/09-ms_2_1_1_1_3_4_unit270.mp3,0,2,0,2,0,1,,,,,,,,,,,,,,,,,,
,,,,,,,,,,,,,train37_audtrain2,2023-11-30_01h33.19.271,AudTraining2,2021.2.3,MacIntel,60.0024001,,,,,,,,,,,,,,,,,,,,,2,0.4255,2,7,31,2,1,RegPatterns/09-ms_2_1_1_1_3_4_unit270.mp3,RegPatterns/09d-ms_2_1_1_3_1_4_unit270.mp3,,,,,,,,,
,,,,,,,,,,,,,train37_audtrain2,2023-11-30_01h33.19.271,AudTraining2,2021.2.3,MacIntel,60.0024001,,,,,,,,,,,,,,RegPatterns/26-ms_1_1_2_2_1_1_4_unit250.mp3,0,0,0,0,0,1,,,,,,,,,,,,,,,,,,
,,,,,,,,,,,,,train37_audtrain2,2023-11-30_01h33.19.271,AudTraining2,2021.2.3,MacIntel,60.0024001,,,,,,,,,,,,,,RegPatterns/26d-ms_1_1_2_1_1_2_4_unit250.mp3,2,1,0,1,0,1,,,,,,,,,,,,,,,,,,
,,,,,,,,,,,,,train37_audtrain2,2023-11-30_01h33.19.271,AudTraining2,2021.2.3,MacIntel,60.0024001,,,,,,,,,,,,,,RegPatterns/26-ms_1_1_2_2_1_1_4_unit250.mp3,0,2,0,2,0,1,,,,,,,,,,,,,,,,,,
,,,,,,,,,,,,,train37_audtrain2,2023-11-30_01h33.19.271,AudTraining2,2021.2.3,MacIntel,60.0024001,,,,,,,,,,,,,,,,,,,,,3,0.4526,2,8,32,8,1,RegPatterns/26-ms_1_1_2_2_1_1_4_unit250.mp3,RegPatterns/26d-ms_1_1_2_1_1_2_4_unit250.mp3,,,,,,,,,
,,,,,,,,,,,,,train37_audtrain2,2023-11-30_01h33.19.271,AudTraining2,2021.2.3,MacIntel,60.0024001,,,,,,,,,,,,,,RegPatterns/18-ms_4_2_2_1_1_2_unit270.mp3,0,0,0,0,0,1,,,,,,,,,,,,,,,,,,
,,,,,,,,,,,,,train37_audtrain2,2023-11-30_01h33.19.271,AudTraining2,2021.2.3,MacIntel,60.0024001,,,,,,,,,,,,,,RegPatterns/18d-ms_4_2_2_2_1_1_unit270.mp3,2,1,0,1,0,1,,,,,,,,,,,,,,,,,,
,,,,,,,,,,,,,train37_audtrain2,2023-11-30_01h33.19.271,AudTraining2,2021.2.3,MacIntel,60.0024001,,,,,,,,,,,,,,RegPatterns/18-ms_4_2_2_1_1_2_unit270.mp3,0,2,0,2,0,1,,,,,,,,,,,,,,,,,,
,,,,,,,,,,,,,train37_audtrain2,2023-11-30_01h33.19.271,AudTraining2,2021.2.3,MacIntel,60.0024001,,,,,,,,,,,,,,,,,,,,,2,0.3102,2,9,33,6,1,RegPatterns/18-ms_4_2_2_1_1_2_unit270.mp3,RegPatterns/18d-ms_4_2_2_2_1_1_unit270.mp3,,,,,,,,,
,,,,,,,,,,,,,train37_audtrain2,2023-11-30_01h33.19.271,AudTraining2,2021.2.3,MacIntel,60.0024001,,,,,,,,,,,,,,RegPatterns/14d-ms_2_1_1_4_3_1_unit250.mp3,1,0,0,0,0,1,,,,,,,,,,,,,,,,,,
,,,,,,,,,,,,,train37_audtrain2,2023-11-30_01h33.19.271,AudTraining2,2021.2.3,MacIntel,60.0024001,,,,,,,,,,,,,,RegPatterns/14-ms_2_1_1_4_1_3_unit250.mp3,0,1,0,1,0,1,,,,,,,,,,,,,,,,,,
,,,,,,,,,,,,,train37_audtrain2,2023-11-30_01h33.19.271,AudTraining2,2021.2.3,MacIntel,60.0024001,,,,,,,,,,,,,,RegPatterns/14-ms_2_1_1_4_1_3_unit250.mp3,0,2,0,2,0,1,,,,,,,,,,,,,,,,,,
,,,,,,,,,,,,,train37_audtrain2,2023-11-30_01h33.19.271,AudTraining2,2021.2.3,MacIntel,60.0024001,,,,,,,,,,,,,,,,,,,,,1,0.3666,2,10,34,4,1,RegPatterns/14-ms_2_1_1_4_1_3_unit250.mp3,RegPatterns/14d-ms_2_1_1_4_3_1_unit250.mp3,,,,,,,,,
,,,,,,,,,,,,,train37_audtrain2,2023-11-30_01h33.19.271,AudTraining2,2021.2.3,MacIntel,60.0024001,,,,,,,,,,,,,,RegPatterns/30-ms_3_1_2_2_1_1_2_unit230.mp3,0,0,0,0,0,1,,,,,,,,,,,,,,,,,,
,,,,,,,,,,,,,train37_audtrain2,2023-11-30_01h33.19.271,AudTraining2,2021.2.3,MacIntel,60.0024001,,,,,,,,,,,,,,RegPatterns/30d-ms_1_3_2_2_1_1_2_unit230.mp3,2,1,0,1,0,1,,,,,,,,,,,,,,,,,,
,,,,,,,,,,,,,train37_audtrain2,2023-11-30_01h33.19.271,AudTraining2,2021.2.3,MacIntel,60.0024001,,,,,,,,,,,,,,RegPatterns/30-ms_3_1_2_2_1_1_2_unit230.mp3,0,2,0,2,0,1,,,,,,,,,,,,,,,,,,
,,,,,,,,,,,,,train37_audtrain2,2023-11-30_01h33.19.271,AudTraining2,2021.2.3,MacIntel,60.0024001,,,,,,,,,,,,,,,,,,,,,2,0.4196,2,11,35,10,1,RegPatterns/30-ms_3_1_2_2_1_1_2_unit230.mp3,RegPatterns/30d-ms_1_3_2_2_1_1_2_unit230.mp3,,,,,,,,,
,,,,,,,,,,,,,train37_audtrain2,2023-11-30_01h33.19.271,AudTraining2,2021.2.3,MacIntel,60.0024001,,,,,,,,,,,,,,,,,,,,,,,,,,,,,,,,,,,,,space,1.3204
