key_resp.keys,key_resp.rt,key_resp_8.keys,key_resp_8.rt,key_resp_9.keys,key_resp_9.rt,trials.thisRepN,trials.thisTrialN,trials.thisN,trials.thisIndex,trials.ran,volstandard,voldeviant,participant,date,expName,psychopyVersion,OS,frameRate,key_resp_2.keys,key_resp_2.rt,key_resp_4.keys,key_resp_4.rt,trials_5.thisRepN,trials_5.thisTrialN,trials_5.thisN,trials_5.thisIndex,trials_5.ran,RegStandardPitch,RegDeviantPitch,key_resp_5.keys,key_resp_5.rt,RegAudSequence,diff-reg,trials_2.thisRepN,trials_2.thisTrialN,trials_2.thisN,trials_2.thisIndex,trials_2.ran,key_resp_7.keys,key_resp_7.rt,trials_3.thisRepN,trials_3.thisTrialN,trials_3.thisN,trials_3.thisIndex,trials_3.ran,standard,devient,key_resp_6.keys,key_resp_6.rt,trials_4.thisRepN,trials_4.thisTrialN,trials_4.thisN,trials_4.thisIndex,trials_4.ran,key_resp_10.keys,key_resp_10.rt
space,1.032,space,0.525,space,0.434,0,0,0,0,1,RegPatterns/01-ms_2_2_4_1_3_unit230.mp3,RegPatterns/01d-ms_2_2_4_3_1_unit230.mp3,train53_audtrain1,2024-01-28_20h46.08.934,AudTraining1,2021.2.3,MacIntel,83.33333333,,,,,,,,,,,,,,,,,,,,,,,,,,,,,,,,,,,,,,
,,,,,,,,,,,,,train53_audtrain1,2024-01-28_20h46.08.934,AudTraining1,2021.2.3,MacIntel,83.33333333,space,3.097,g,0.53,0,0,0,0,1,RegPatterns/Noise.mp3,RegPatterns/Noise.mp3,,,,,,,,,,,,,,,,,,,,,,,,,,,
,,,,,,,,,,,,,train53_audtrain1,2024-01-28_20h46.08.934,AudTraining1,2021.2.3,MacIntel,83.33333333,,,,,,,,,,,,space,1.107,RegPatterns/24-ms_4_2_2_1_1_1_1_unit230.mp3,0,0,0,0,0,1,,,,,,,,,,,,,,,,,,
,,,,,,,,,,,,,train53_audtrain1,2024-01-28_20h46.08.934,AudTraining1,2021.2.3,MacIntel,83.33333333,,,,,,,,,,,,,,RegPatterns/24d-ms_4_2_1_1_2_1_1_unit230.mp3,2,1,0,1,0,1,,,,,,,,,,,,,,,,,,
,,,,,,,,,,,,,train53_audtrain1,2024-01-28_20h46.08.934,AudTraining1,2021.2.3,MacIntel,83.33333333,,,,,,,,,,,,,,RegPatterns/24-ms_4_2_2_1_1_1_1_unit230.mp3,0,2,0,2,0,1,,,,,,,,,,,,,,,,,,
,,,,,,,,,,,,,train53_audtrain1,2024-01-28_20h46.08.934,AudTraining1,2021.2.3,MacIntel,83.33333333,,,,,,,,,,,,,,,,,,,,,2,0.611,0,0,0,9,1,RegPatterns/24-ms_4_2_2_1_1_1_1_unit230.mp3,RegPatterns/24d-ms_4_2_1_1_2_1_1_unit230.mp3,,,,,,,,,
,,,,,,,,,,,,,train53_audtrain1,2024-01-28_20h46.08.934,AudTraining1,2021.2.3,MacIntel,83.33333333,,,,,,,,,,,,,,RegPatterns/21-ms_2_1_1_3_1_1_3_unit270.mp3,0,0,0,0,0,1,,,,,,,,,,,,,,,,,,
,,,,,,,,,,,,,train53_audtrain1,2024-01-28_20h46.08.934,AudTraining1,2021.2.3,MacIntel,83.33333333,,,,,,,,,,,,,,RegPatterns/21-ms_2_1_1_3_1_1_3_unit270.mp3,0,1,0,1,0,1,,,,,,,,,,,,,,,,,,
,,,,,,,,,,,,,train53_audtrain1,2024-01-28_20h46.08.934,AudTraining1,2021.2.3,MacIntel,83.33333333,,,,,,,,,,,,,,RegPatterns/21d-ms_2_1_1_3_1_3_1_unit270.mp3,3,2,0,2,0,1,,,,,,,,,,,,,,,,,,
,,,,,,,,,,,,,train53_audtrain1,2024-01-28_20h46.08.934,AudTraining1,2021.2.3,MacIntel,83.33333333,,,,,,,,,,,,,,,,,,,,,3,0.295,0,1,1,7,1,RegPatterns/21-ms_2_1_1_3_1_1_3_unit270.mp3,RegPatterns/21d-ms_2_1_1_3_1_3_1_unit270.mp3,,,,,,,,,
,,,,,,,,,,,,,train53_audtrain1,2024-01-28_20h46.08.934,AudTraining1,2021.2.3,MacIntel,83.33333333,,,,,,,,,,,,,,RegPatterns/28-ms_2_2_1_1_1_1_4_unit250.mp3,0,0,0,0,0,1,,,,,,,,,,,,,,,,,,
,,,,,,,,,,,,,train53_audtrain1,2024-01-28_20h46.08.934,AudTraining1,2021.2.3,MacIntel,83.33333333,,,,,,,,,,,,,,RegPatterns/28-ms_2_2_1_1_1_1_4_unit250.mp3,0,1,0,1,0,1,,,,,,,,,,,,,,,,,,
,,,,,,,,,,,,,train53_audtrain1,2024-01-28_20h46.08.934,AudTraining1,2021.2.3,MacIntel,83.33333333,,,,,,,,,,,,,,RegPatterns/28d-ms_2_1_1_2_1_1_4_unit250.mp3,3,2,0,2,0,1,,,,,,,,,,,,,,,,,,
,,,,,,,,,,,,,train53_audtrain1,2024-01-28_20h46.08.934,AudTraining1,2021.2.3,MacIntel,83.33333333,,,,,,,,,,,,,,,,,,,,,2,1.72,0,2,2,11,1,RegPatterns/28-ms_2_2_1_1_1_1_4_unit250.mp3,RegPatterns/28d-ms_2_1_1_2_1_1_4_unit250.mp3,,,,,,,,,
,,,,,,,,,,,,,train53_audtrain1,2024-01-28_20h46.08.934,AudTraining1,2021.2.3,MacIntel,83.33333333,,,,,,,,,,,,,,RegPatterns/23-ms_4_1_1_1_1_3_1_unit250.mp3,0,0,0,0,0,1,,,,,,,,,,,,,,,,,,
,,,,,,,,,,,,,train53_audtrain1,2024-01-28_20h46.08.934,AudTraining1,2021.2.3,MacIntel,83.33333333,,,,,,,,,,,,,,RegPatterns/23d-ms_4_1_1_1_1_1_3_unit250.mp3,2,1,0,1,0,1,,,,,,,,,,,,,,,,,,
,,,,,,,,,,,,,train53_audtrain1,2024-01-28_20h46.08.934,AudTraining1,2021.2.3,MacIntel,83.33333333,,,,,,,,,,,,,,RegPatterns/23-ms_4_1_1_1_1_3_1_unit250.mp3,0,2,0,2,0,1,,,,,,,,,,,,,,,,,,
,,,,,,,,,,,,,train53_audtrain1,2024-01-28_20h46.08.934,AudTraining1,2021.2.3,MacIntel,83.33333333,,,,,,,,,,,,,,,,,,,,,1,4.034,0,3,3,8,1,RegPatterns/23-ms_4_1_1_1_1_3_1_unit250.mp3,RegPatterns/23d-ms_4_1_1_1_1_1_3_unit250.mp3,,,,,,,,,
,,,,,,,,,,,,,train53_audtrain1,2024-01-28_20h46.08.934,AudTraining1,2021.2.3,MacIntel,83.33333333,,,,,,,,,,,,,,RegPatterns/11d-ms_2_2_3_1_3_1_unit250.mp3,1,0,0,0,0,1,,,,,,,,,,,,,,,,,,
,,,,,,,,,,,,,train53_audtrain1,2024-01-28_20h46.08.934,AudTraining1,2021.2.3,MacIntel,83.33333333,,,,,,,,,,,,,,RegPatterns/11-ms_2_2_3_1_1_3_unit250.mp3,0,1,0,1,0,1,,,,,,,,,,,,,,,,,,
,,,,,,,,,,,,,train53_audtrain1,2024-01-28_20h46.08.934,AudTraining1,2021.2.3,MacIntel,83.33333333,,,,,,,,,,,,,,RegPatterns/11-ms_2_2_3_1_1_3_unit250.mp3,0,2,0,2,0,1,,,,,,,,,,,,,,,,,,
,,,,,,,,,,,,,train53_audtrain1,2024-01-28_20h46.08.934,AudTraining1,2021.2.3,MacIntel,83.33333333,,,,,,,,,,,,,,,,,,,,,2,1.54,0,4,4,3,1,RegPatterns/11-ms_2_2_3_1_1_3_unit250.mp3,RegPatterns/11d-ms_2_2_3_1_3_1_unit250.mp3,,,,,,,,,
,,,,,,,,,,,,,train53_audtrain1,2024-01-28_20h46.08.934,AudTraining1,2021.2.3,MacIntel,83.33333333,,,,,,,,,,,,,,RegPatterns/07-ms_1_1_2_3_1_4_unit230.mp3,0,0,0,0,0,1,,,,,,,,,,,,,,,,,,
,,,,,,,,,,,,,train53_audtrain1,2024-01-28_20h46.08.934,AudTraining1,2021.2.3,MacIntel,83.33333333,,,,,,,,,,,,,,RegPatterns/07d-ms_1_1_2_1_3_4_unit230.mp3,2,1,0,1,0,1,,,,,,,,,,,,,,,,,,
,,,,,,,,,,,,,train53_audtrain1,2024-01-28_20h46.08.934,AudTraining1,2021.2.3,MacIntel,83.33333333,,,,,,,,,,,,,,RegPatterns/07-ms_1_1_2_3_1_4_unit230.mp3,0,2,0,2,0,1,,,,,,,,,,,,,,,,,,
,,,,,,,,,,,,,train53_audtrain1,2024-01-28_20h46.08.934,AudTraining1,2021.2.3,MacIntel,83.33333333,,,,,,,,,,,,,,,,,,,,,2,0.289,0,5,5,2,1,RegPatterns/07-ms_1_1_2_3_1_4_unit230.mp3,RegPatterns/07d-ms_1_1_2_1_3_4_unit230.mp3,,,,,,,,,
,,,,,,,,,,,,,train53_audtrain1,2024-01-28_20h46.08.934,AudTraining1,2021.2.3,MacIntel,83.33333333,,,,,,,,,,,,,,RegPatterns/04-ms_4_1_3_3_1_unit230.mp3,0,0,0,0,0,1,,,,,,,,,,,,,,,,,,
,,,,,,,,,,,,,train53_audtrain1,2024-01-28_20h46.08.934,AudTraining1,2021.2.3,MacIntel,83.33333333,,,,,,,,,,,,,,RegPatterns/04-ms_4_1_3_3_1_unit230.mp3,0,1,0,1,0,1,,,,,,,,,,,,,,,,,,
,,,,,,,,,,,,,train53_audtrain1,2024-01-28_20h46.08.934,AudTraining1,2021.2.3,MacIntel,83.33333333,,,,,,,,,,,,,,RegPatterns/04d-ms_4_3_1_3_1_unit230.mp3,3,2,0,2,0,1,,,,,,,,,,,,,,,,,,
,,,,,,,,,,,,,train53_audtrain1,2024-01-28_20h46.08.934,AudTraining1,2021.2.3,MacIntel,83.33333333,,,,,,,,,,,,,,,,,,,,,3,1.04,0,6,6,0,1,RegPatterns/04-ms_4_1_3_3_1_unit230.mp3,RegPatterns/04d-ms_4_3_1_3_1_unit230.mp3,,,,,,,,,
,,,,,,,,,,,,,train53_audtrain1,2024-01-28_20h46.08.934,AudTraining1,2021.2.3,MacIntel,83.33333333,,,,,,,,,,,,,,RegPatterns/27d-ms_1_1_2_3_1_3_1_unit270.mp3,1,0,0,0,0,1,,,,,,,,,,,,,,,,,,
,,,,,,,,,,,,,train53_audtrain1,2024-01-28_20h46.08.934,AudTraining1,2021.2.3,MacIntel,83.33333333,,,,,,,,,,,,,,RegPatterns/27-ms_1_1_2_3_1_1_3_unit270.mp3,0,1,0,1,0,1,,,,,,,,,,,,,,,,,,
,,,,,,,,,,,,,train53_audtrain1,2024-01-28_20h46.08.934,AudTraining1,2021.2.3,MacIntel,83.33333333,,,,,,,,,,,,,,RegPatterns/27-ms_1_1_2_3_1_1_3_unit270.mp3,0,2,0,2,0,1,,,,,,,,,,,,,,,,,,
,,,,,,,,,,,,,train53_audtrain1,2024-01-28_20h46.08.934,AudTraining1,2021.2.3,MacIntel,83.33333333,,,,,,,,,,,,,,,,,,,,,3,5.078,0,7,7,10,1,RegPatterns/27-ms_1_1_2_3_1_1_3_unit270.mp3,RegPatterns/27d-ms_1_1_2_3_1_3_1_unit270.mp3,,,,,,,,,
,,,,,,,,,,,,,train53_audtrain1,2024-01-28_20h46.08.934,AudTraining1,2021.2.3,MacIntel,83.33333333,,,,,,,,,,,,,,RegPatterns/13-ms_2_1_1_2_2_4_unit230.mp3,0,0,0,0,0,1,,,,,,,,,,,,,,,,,,
,,,,,,,,,,,,,train53_audtrain1,2024-01-28_20h46.08.934,AudTraining1,2021.2.3,MacIntel,83.33333333,,,,,,,,,,,,,,RegPatterns/13-ms_2_1_1_2_2_4_unit230.mp3,0,1,0,1,0,1,,,,,,,,,,,,,,,,,,
,,,,,,,,,,,,,train53_audtrain1,2024-01-28_20h46.08.934,AudTraining1,2021.2.3,MacIntel,83.33333333,,,,,,,,,,,,,,RegPatterns/13d-ms_1_1_2_2_2_4_unit230.mp3,3,2,0,2,0,1,,,,,,,,,,,,,,,,,,
,,,,,,,,,,,,,train53_audtrain1,2024-01-28_20h46.08.934,AudTraining1,2021.2.3,MacIntel,83.33333333,,,,,,,,,,,,,,,,,,,,,3,2.208,0,8,8,4,1,RegPatterns/13-ms_2_1_1_2_2_4_unit230.mp3,RegPatterns/13d-ms_1_1_2_2_2_4_unit230.mp3,,,,,,,,,
,,,,,,,,,,,,,train53_audtrain1,2024-01-28_20h46.08.934,AudTraining1,2021.2.3,MacIntel,83.33333333,,,,,,,,,,,,,,RegPatterns/06-ms_4_3_1_2_2_unit270.mp3,0,0,0,0,0,1,,,,,,,,,,,,,,,,,,
,,,,,,,,,,,,,train53_audtrain1,2024-01-28_20h46.08.934,AudTraining1,2021.2.3,MacIntel,83.33333333,,,,,,,,,,,,,,RegPatterns/06d-ms_4_1_3_2_2_unit270.mp3,2,1,0,1,0,1,,,,,,,,,,,,,,,,,,
,,,,,,,,,,,,,train53_audtrain1,2024-01-28_20h46.08.934,AudTraining1,2021.2.3,MacIntel,83.33333333,,,,,,,,,,,,,,RegPatterns/06-ms_4_3_1_2_2_unit270.mp3,0,2,0,2,0,1,,,,,,,,,,,,,,,,,,
,,,,,,,,,,,,,train53_audtrain1,2024-01-28_20h46.08.934,AudTraining1,2021.2.3,MacIntel,83.33333333,,,,,,,,,,,,,,,,,,,,,2,1.103,0,9,9,1,1,RegPatterns/06-ms_4_3_1_2_2_unit270.mp3,RegPatterns/06d-ms_4_1_3_2_2_unit270.mp3,,,,,,,,,
,,,,,,,,,,,,,train53_audtrain1,2024-01-28_20h46.08.934,AudTraining1,2021.2.3,MacIntel,83.33333333,,,,,,,,,,,,,,RegPatterns/17-ms_4_1_1_2_3_1_unit250.mp3,0,0,0,0,0,1,,,,,,,,,,,,,,,,,,
,,,,,,,,,,,,,train53_audtrain1,2024-01-28_20h46.08.934,AudTraining1,2021.2.3,MacIntel,83.33333333,,,,,,,,,,,,,,RegPatterns/17-ms_4_1_1_2_3_1_unit250.mp3,0,1,0,1,0,1,,,,,,,,,,,,,,,,,,
,,,,,,,,,,,,,train53_audtrain1,2024-01-28_20h46.08.934,AudTraining1,2021.2.3,MacIntel,83.33333333,,,,,,,,,,,,,,RegPatterns/17d-ms_4_1_1_2_1_3_unit250.mp3,3,2,0,2,0,1,,,,,,,,,,,,,,,,,,
,,,,,,,,,,,,,train53_audtrain1,2024-01-28_20h46.08.934,AudTraining1,2021.2.3,MacIntel,83.33333333,,,,,,,,,,,,,,,,,,,,,3,0.35,0,10,10,6,1,RegPatterns/17-ms_4_1_1_2_3_1_unit250.mp3,RegPatterns/17d-ms_4_1_1_2_1_3_unit250.mp3,,,,,,,,,
,,,,,,,,,,,,,train53_audtrain1,2024-01-28_20h46.08.934,AudTraining1,2021.2.3,MacIntel,83.33333333,,,,,,,,,,,,,,RegPatterns/15d-ms_2_2_1_3_1_3_unit270.mp3,1,0,0,0,0,1,,,,,,,,,,,,,,,,,,
,,,,,,,,,,,,,train53_audtrain1,2024-01-28_20h46.08.934,AudTraining1,2021.2.3,MacIntel,83.33333333,,,,,,,,,,,,,,RegPatterns/15-ms_2_2_1_3_3_1_unit270.mp3,0,1,0,1,0,1,,,,,,,,,,,,,,,,,,
,,,,,,,,,,,,,train53_audtrain1,2024-01-28_20h46.08.934,AudTraining1,2021.2.3,MacIntel,83.33333333,,,,,,,,,,,,,,RegPatterns/15-ms_2_2_1_3_3_1_unit270.mp3,0,2,0,2,0,1,,,,,,,,,,,,,,,,,,
,,,,,,,,,,,,,train53_audtrain1,2024-01-28_20h46.08.934,AudTraining1,2021.2.3,MacIntel,83.33333333,,,,,,,,,,,,,,,,,,,,,2,1.349,0,11,11,5,1,RegPatterns/15-ms_2_2_1_3_3_1_unit270.mp3,RegPatterns/15d-ms_2_2_1_3_1_3_unit270.mp3,,,,,,,,,
,,,,,,,,,,,,,train53_audtrain1,2024-01-28_20h46.08.934,AudTraining1,2021.2.3,MacIntel,83.33333333,,,,,,,,,,,,,,RegPatterns/17-ms_4_1_1_2_3_1_unit250.mp3,0,0,0,0,0,1,,,,,,,,,,,,,,,,,,
,,,,,,,,,,,,,train53_audtrain1,2024-01-28_20h46.08.934,AudTraining1,2021.2.3,MacIntel,83.33333333,,,,,,,,,,,,,,RegPatterns/17d-ms_4_1_1_2_1_3_unit250.mp3,2,1,0,1,0,1,,,,,,,,,,,,,,,,,,
,,,,,,,,,,,,,train53_audtrain1,2024-01-28_20h46.08.934,AudTraining1,2021.2.3,MacIntel,83.33333333,,,,,,,,,,,,,,RegPatterns/17-ms_4_1_1_2_3_1_unit250.mp3,0,2,0,2,0,1,,,,,,,,,,,,,,,,,,
,,,,,,,,,,,,,train53_audtrain1,2024-01-28_20h46.08.934,AudTraining1,2021.2.3,MacIntel,83.33333333,,,,,,,,,,RegPatterns/Noise.mp3,RegPatterns/Noise.mp3,,,,,,,,,,1,1.045,,,,,,,,g,0.53,0,0,0,0,1,,
,,,,,,,,,,,,,train53_audtrain1,2024-01-28_20h46.08.934,AudTraining1,2021.2.3,MacIntel,83.33333333,,,,,,,,,,,,,,,,,,,,,,,1,0,12,6,1,RegPatterns/17-ms_4_1_1_2_3_1_unit250.mp3,RegPatterns/17d-ms_4_1_1_2_1_3_unit250.mp3,,,,,,,,,
,,,,,,,,,,,,,train53_audtrain1,2024-01-28_20h46.08.934,AudTraining1,2021.2.3,MacIntel,83.33333333,,,,,,,,,,,,,,RegPatterns/11-ms_2_2_3_1_1_3_unit250.mp3,0,0,0,0,0,1,,,,,,,,,,,,,,,,,,
,,,,,,,,,,,,,train53_audtrain1,2024-01-28_20h46.08.934,AudTraining1,2021.2.3,MacIntel,83.33333333,,,,,,,,,,,,,,RegPatterns/11-ms_2_2_3_1_1_3_unit250.mp3,0,1,0,1,0,1,,,,,,,,,,,,,,,,,,
,,,,,,,,,,,,,train53_audtrain1,2024-01-28_20h46.08.934,AudTraining1,2021.2.3,MacIntel,83.33333333,,,,,,,,,,,,,,RegPatterns/11d-ms_2_2_3_1_3_1_unit250.mp3,3,2,0,2,0,1,,,,,,,,,,,,,,,,,,
,,,,,,,,,,,,,train53_audtrain1,2024-01-28_20h46.08.934,AudTraining1,2021.2.3,MacIntel,83.33333333,,,,,,,,,,,,,,,,,,,,,3,0.372,1,1,13,3,1,RegPatterns/11-ms_2_2_3_1_1_3_unit250.mp3,RegPatterns/11d-ms_2_2_3_1_3_1_unit250.mp3,,,,,,,,,
,,,,,,,,,,,,,train53_audtrain1,2024-01-28_20h46.08.934,AudTraining1,2021.2.3,MacIntel,83.33333333,,,,,,,,,,,,,,RegPatterns/24d-ms_4_2_1_1_2_1_1_unit230.mp3,1,0,0,0,0,1,,,,,,,,,,,,,,,,,,
,,,,,,,,,,,,,train53_audtrain1,2024-01-28_20h46.08.934,AudTraining1,2021.2.3,MacIntel,83.33333333,,,,,,,,,,,,,,RegPatterns/24-ms_4_2_2_1_1_1_1_unit230.mp3,0,1,0,1,0,1,,,,,,,,,,,,,,,,,,
,,,,,,,,,,,,,train53_audtrain1,2024-01-28_20h46.08.934,AudTraining1,2021.2.3,MacIntel,83.33333333,,,,,,,,,,,,,,RegPatterns/24-ms_4_2_2_1_1_1_1_unit230.mp3,0,2,0,2,0,1,,,,,,,,,,,,,,,,,,
,,,,,,,,,,,,,train53_audtrain1,2024-01-28_20h46.08.934,AudTraining1,2021.2.3,MacIntel,83.33333333,,,,,,,,,,,,,,,,,,,,,1,0.285,1,2,14,9,1,RegPatterns/24-ms_4_2_2_1_1_1_1_unit230.mp3,RegPatterns/24d-ms_4_2_1_1_2_1_1_unit230.mp3,,,,,,,,,
,,,,,,,,,,,,,train53_audtrain1,2024-01-28_20h46.08.934,AudTraining1,2021.2.3,MacIntel,83.33333333,,,,,,,,,,,,,,RegPatterns/28d-ms_2_1_1_2_1_1_4_unit250.mp3,1,0,0,0,0,1,,,,,,,,,,,,,,,,,,
,,,,,,,,,,,,,train53_audtrain1,2024-01-28_20h46.08.934,AudTraining1,2021.2.3,MacIntel,83.33333333,,,,,,,,,,,,,,RegPatterns/28-ms_2_2_1_1_1_1_4_unit250.mp3,0,1,0,1,0,1,,,,,,,,,,,,,,,,,,
,,,,,,,,,,,,,train53_audtrain1,2024-01-28_20h46.08.934,AudTraining1,2021.2.3,MacIntel,83.33333333,,,,,,,,,,,,,,RegPatterns/28-ms_2_2_1_1_1_1_4_unit250.mp3,0,2,0,2,0,1,,,,,,,,,,,,,,,,,,
,,,,,,,,,,,,,train53_audtrain1,2024-01-28_20h46.08.934,AudTraining1,2021.2.3,MacIntel,83.33333333,,,,,,,,,,,,,,,,,,,,,1,0.316,1,3,15,11,1,RegPatterns/28-ms_2_2_1_1_1_1_4_unit250.mp3,RegPatterns/28d-ms_2_1_1_2_1_1_4_unit250.mp3,,,,,,,,,
,,,,,,,,,,,,,train53_audtrain1,2024-01-28_20h46.08.934,AudTraining1,2021.2.3,MacIntel,83.33333333,,,,,,,,,,,,,,RegPatterns/15-ms_2_2_1_3_3_1_unit270.mp3,0,0,0,0,0,1,,,,,,,,,,,,,,,,,,
,,,,,,,,,,,,,train53_audtrain1,2024-01-28_20h46.08.934,AudTraining1,2021.2.3,MacIntel,83.33333333,,,,,,,,,,,,,,RegPatterns/15d-ms_2_2_1_3_1_3_unit270.mp3,2,1,0,1,0,1,,,,,,,,,,,,,,,,,,
,,,,,,,,,,,,,train53_audtrain1,2024-01-28_20h46.08.934,AudTraining1,2021.2.3,MacIntel,83.33333333,,,,,,,,,,,,,,RegPatterns/15-ms_2_2_1_3_3_1_unit270.mp3,0,2,0,2,0,1,,,,,,,,,,,,,,,,,,
,,,,,,,,,,,,,train53_audtrain1,2024-01-28_20h46.08.934,AudTraining1,2021.2.3,MacIntel,83.33333333,,,,,,,,,,,,,,,,,,,,,2,0.374,1,4,16,5,1,RegPatterns/15-ms_2_2_1_3_3_1_unit270.mp3,RegPatterns/15d-ms_2_2_1_3_1_3_unit270.mp3,,,,,,,,,
,,,,,,,,,,,,,train53_audtrain1,2024-01-28_20h46.08.934,AudTraining1,2021.2.3,MacIntel,83.33333333,,,,,,,,,,,,,,RegPatterns/21d-ms_2_1_1_3_1_3_1_unit270.mp3,1,0,0,0,0,1,,,,,,,,,,,,,,,,,,
,,,,,,,,,,,,,train53_audtrain1,2024-01-28_20h46.08.934,AudTraining1,2021.2.3,MacIntel,83.33333333,,,,,,,,,,,,,,RegPatterns/21-ms_2_1_1_3_1_1_3_unit270.mp3,0,1,0,1,0,1,,,,,,,,,,,,,,,,,,
,,,,,,,,,,,,,train53_audtrain1,2024-01-28_20h46.08.934,AudTraining1,2021.2.3,MacIntel,83.33333333,,,,,,,,,,,,,,RegPatterns/21-ms_2_1_1_3_1_1_3_unit270.mp3,0,2,0,2,0,1,,,,,,,,,,,,,,,,,,
,,,,,,,,,,,,,train53_audtrain1,2024-01-28_20h46.08.934,AudTraining1,2021.2.3,MacIntel,83.33333333,,,,,,,,,,,,,,,,,,,,,1,0.331,1,5,17,7,1,RegPatterns/21-ms_2_1_1_3_1_1_3_unit270.mp3,RegPatterns/21d-ms_2_1_1_3_1_3_1_unit270.mp3,,,,,,,,,
,,,,,,,,,,,,,train53_audtrain1,2024-01-28_20h46.08.934,AudTraining1,2021.2.3,MacIntel,83.33333333,,,,,,,,,,,,,,RegPatterns/07-ms_1_1_2_3_1_4_unit230.mp3,0,0,0,0,0,1,,,,,,,,,,,,,,,,,,
,,,,,,,,,,,,,train53_audtrain1,2024-01-28_20h46.08.934,AudTraining1,2021.2.3,MacIntel,83.33333333,,,,,,,,,,,,,,RegPatterns/07-ms_1_1_2_3_1_4_unit230.mp3,0,1,0,1,0,1,,,,,,,,,,,,,,,,,,
,,,,,,,,,,,,,train53_audtrain1,2024-01-28_20h46.08.934,AudTraining1,2021.2.3,MacIntel,83.33333333,,,,,,,,,,,,,,RegPatterns/07d-ms_1_1_2_1_3_4_unit230.mp3,3,2,0,2,0,1,,,,,,,,,,,,,,,,,,
,,,,,,,,,,,,,train53_audtrain1,2024-01-28_20h46.08.934,AudTraining1,2021.2.3,MacIntel,83.33333333,,,,,,,,,,,,,,,,,,,,,3,2.403,1,6,18,2,1,RegPatterns/07-ms_1_1_2_3_1_4_unit230.mp3,RegPatterns/07d-ms_1_1_2_1_3_4_unit230.mp3,,,,,,,,,
,,,,,,,,,,,,,train53_audtrain1,2024-01-28_20h46.08.934,AudTraining1,2021.2.3,MacIntel,83.33333333,,,,,,,,,,,,,,RegPatterns/13d-ms_1_1_2_2_2_4_unit230.mp3,1,0,0,0,0,1,,,,,,,,,,,,,,,,,,
,,,,,,,,,,,,,train53_audtrain1,2024-01-28_20h46.08.934,AudTraining1,2021.2.3,MacIntel,83.33333333,,,,,,,,,,,,,,RegPatterns/13-ms_2_1_1_2_2_4_unit230.mp3,0,1,0,1,0,1,,,,,,,,,,,,,,,,,,
,,,,,,,,,,,,,train53_audtrain1,2024-01-28_20h46.08.934,AudTraining1,2021.2.3,MacIntel,83.33333333,,,,,,,,,,,,,,RegPatterns/13-ms_2_1_1_2_2_4_unit230.mp3,0,2,0,2,0,1,,,,,,,,,,,,,,,,,,
,,,,,,,,,,,,,train53_audtrain1,2024-01-28_20h46.08.934,AudTraining1,2021.2.3,MacIntel,83.33333333,,,,,,,,,,,,,,,,,,,,,3,4.428,1,7,19,4,1,RegPatterns/13-ms_2_1_1_2_2_4_unit230.mp3,RegPatterns/13d-ms_1_1_2_2_2_4_unit230.mp3,,,,,,,,,
,,,,,,,,,,,,,train53_audtrain1,2024-01-28_20h46.08.934,AudTraining1,2021.2.3,MacIntel,83.33333333,,,,,,,,,,,,,,RegPatterns/23-ms_4_1_1_1_1_3_1_unit250.mp3,0,0,0,0,0,1,,,,,,,,,,,,,,,,,,
,,,,,,,,,,,,,train53_audtrain1,2024-01-28_20h46.08.934,AudTraining1,2021.2.3,MacIntel,83.33333333,,,,,,,,,,,,,,RegPatterns/23-ms_4_1_1_1_1_3_1_unit250.mp3,0,1,0,1,0,1,,,,,,,,,,,,,,,,,,
,,,,,,,,,,,,,train53_audtrain1,2024-01-28_20h46.08.934,AudTraining1,2021.2.3,MacIntel,83.33333333,,,,,,,,,,,,,,RegPatterns/23d-ms_4_1_1_1_1_1_3_unit250.mp3,3,2,0,2,0,1,,,,,,,,,,,,,,,,,,
,,,,,,,,,,,,,train53_audtrain1,2024-01-28_20h46.08.934,AudTraining1,2021.2.3,MacIntel,83.33333333,,,,,,,,,,,,,,,,,,,,,2,3.929,1,8,20,8,1,RegPatterns/23-ms_4_1_1_1_1_3_1_unit250.mp3,RegPatterns/23d-ms_4_1_1_1_1_1_3_unit250.mp3,,,,,,,,,
,,,,,,,,,,,,,train53_audtrain1,2024-01-28_20h46.08.934,AudTraining1,2021.2.3,MacIntel,83.33333333,,,,,,,,,,,,,,RegPatterns/27-ms_1_1_2_3_1_1_3_unit270.mp3,0,0,0,0,0,1,,,,,,,,,,,,,,,,,,
,,,,,,,,,,,,,train53_audtrain1,2024-01-28_20h46.08.934,AudTraining1,2021.2.3,MacIntel,83.33333333,,,,,,,,,,,,,,RegPatterns/27-ms_1_1_2_3_1_1_3_unit270.mp3,0,1,0,1,0,1,,,,,,,,,,,,,,,,,,
,,,,,,,,,,,,,train53_audtrain1,2024-01-28_20h46.08.934,AudTraining1,2021.2.3,MacIntel,83.33333333,,,,,,,,,,,,,,RegPatterns/27d-ms_1_1_2_3_1_3_1_unit270.mp3,3,2,0,2,0,1,,,,,,,,,,,,,,,,,,
,,,,,,,,,,,,,train53_audtrain1,2024-01-28_20h46.08.934,AudTraining1,2021.2.3,MacIntel,83.33333333,,,,,,,,,,,,,,,,,,,,,2,1.104,1,9,21,10,1,RegPatterns/27-ms_1_1_2_3_1_1_3_unit270.mp3,RegPatterns/27d-ms_1_1_2_3_1_3_1_unit270.mp3,,,,,,,,,
,,,,,,,,,,,,,train53_audtrain1,2024-01-28_20h46.08.934,AudTraining1,2021.2.3,MacIntel,83.33333333,,,,,,,,,,,,,,RegPatterns/06d-ms_4_1_3_2_2_unit270.mp3,1,0,0,0,0,1,,,,,,,,,,,,,,,,,,
,,,,,,,,,,,,,train53_audtrain1,2024-01-28_20h46.08.934,AudTraining1,2021.2.3,MacIntel,83.33333333,,,,,,,,,,,,,,RegPatterns/06-ms_4_3_1_2_2_unit270.mp3,0,1,0,1,0,1,,,,,,,,,,,,,,,,,,
,,,,,,,,,,,,,train53_audtrain1,2024-01-28_20h46.08.934,AudTraining1,2021.2.3,MacIntel,83.33333333,,,,,,,,,,,,,,RegPatterns/06-ms_4_3_1_2_2_unit270.mp3,0,2,0,2,0,1,,,,,,,,,,,,,,,,,,
,,,,,,,,,,,,,train53_audtrain1,2024-01-28_20h46.08.934,AudTraining1,2021.2.3,MacIntel,83.33333333,,,,,,,,,,,,,,,,,,,,,1,1.635,1,10,22,1,1,RegPatterns/06-ms_4_3_1_2_2_unit270.mp3,RegPatterns/06d-ms_4_1_3_2_2_unit270.mp3,,,,,,,,,
,,,,,,,,,,,,,train53_audtrain1,2024-01-28_20h46.08.934,AudTraining1,2021.2.3,MacIntel,83.33333333,,,,,,,,,,,,,,RegPatterns/04d-ms_4_3_1_3_1_unit230.mp3,1,0,0,0,0,1,,,,,,,,,,,,,,,,,,
,,,,,,,,,,,,,train53_audtrain1,2024-01-28_20h46.08.934,AudTraining1,2021.2.3,MacIntel,83.33333333,,,,,,,,,,,,,,RegPatterns/04-ms_4_1_3_3_1_unit230.mp3,0,1,0,1,0,1,,,,,,,,,,,,,,,,,,
,,,,,,,,,,,,,train53_audtrain1,2024-01-28_20h46.08.934,AudTraining1,2021.2.3,MacIntel,83.33333333,,,,,,,,,,,,,,RegPatterns/04-ms_4_1_3_3_1_unit230.mp3,0,2,0,2,0,1,,,,,,,,,,,,,,,,,,
,,,,,,,,,,,,,train53_audtrain1,2024-01-28_20h46.08.934,AudTraining1,2021.2.3,MacIntel,83.33333333,,,,,,,,,,RegPatterns/Noise.mp3,RegPatterns/Noise.mp3,,,,,,,,,,3,9.214,,,,,,,,3,2.698,0,0,0,0,1,,
,,,,,,,,,,,,,train53_audtrain1,2024-01-28_20h46.08.934,AudTraining1,2021.2.3,MacIntel,83.33333333,,,,,,,,,,,,,,,,,,,,,,,1,11,23,0,1,RegPatterns/04-ms_4_1_3_3_1_unit230.mp3,RegPatterns/04d-ms_4_3_1_3_1_unit230.mp3,,,,,,,,,
,,,,,,,,,,,,,train53_audtrain1,2024-01-28_20h46.08.934,AudTraining1,2021.2.3,MacIntel,83.33333333,,,,,,,,,,,,,,RegPatterns/28-ms_2_2_1_1_1_1_4_unit250.mp3,0,0,0,0,0,1,,,,,,,,,,,,,,,,,,
,,,,,,,,,,,,,train53_audtrain1,2024-01-28_20h46.08.934,AudTraining1,2021.2.3,MacIntel,83.33333333,,,,,,,,,,,,,,RegPatterns/28d-ms_2_1_1_2_1_1_4_unit250.mp3,2,1,0,1,0,1,,,,,,,,,,,,,,,,,,
,,,,,,,,,,,,,train53_audtrain1,2024-01-28_20h46.08.934,AudTraining1,2021.2.3,MacIntel,83.33333333,,,,,,,,,,,,,,RegPatterns/28-ms_2_2_1_1_1_1_4_unit250.mp3,0,2,0,2,0,1,,,,,,,,,,,,,,,,,,
,,,,,,,,,,,,,train53_audtrain1,2024-01-28_20h46.08.934,AudTraining1,2021.2.3,MacIntel,83.33333333,,,,,,,,,,,,,,,,,,,,,3,0.431,2,0,24,11,1,RegPatterns/28-ms_2_2_1_1_1_1_4_unit250.mp3,RegPatterns/28d-ms_2_1_1_2_1_1_4_unit250.mp3,,,,,,,,,
,,,,,,,,,,,,,train53_audtrain1,2024-01-28_20h46.08.934,AudTraining1,2021.2.3,MacIntel,83.33333333,,,,,,,,,,,,,,RegPatterns/15-ms_2_2_1_3_3_1_unit270.mp3,0,0,0,0,0,1,,,,,,,,,,,,,,,,,,
,,,,,,,,,,,,,train53_audtrain1,2024-01-28_20h46.08.934,AudTraining1,2021.2.3,MacIntel,83.33333333,,,,,,,,,,,,,,RegPatterns/15-ms_2_2_1_3_3_1_unit270.mp3,0,1,0,1,0,1,,,,,,,,,,,,,,,,,,
,,,,,,,,,,,,,train53_audtrain1,2024-01-28_20h46.08.934,AudTraining1,2021.2.3,MacIntel,83.33333333,,,,,,,,,,,,,,RegPatterns/15d-ms_2_2_1_3_1_3_unit270.mp3,3,2,0,2,0,1,,,,,,,,,,,,,,,,,,
,,,,,,,,,,,,,train53_audtrain1,2024-01-28_20h46.08.934,AudTraining1,2021.2.3,MacIntel,83.33333333,,,,,,,,,,,,,,,,,,,,,3,4.776,2,1,25,5,1,RegPatterns/15-ms_2_2_1_3_3_1_unit270.mp3,RegPatterns/15d-ms_2_2_1_3_1_3_unit270.mp3,,,,,,,,,
,,,,,,,,,,,,,train53_audtrain1,2024-01-28_20h46.08.934,AudTraining1,2021.2.3,MacIntel,83.33333333,,,,,,,,,,,,,,RegPatterns/24-ms_4_2_2_1_1_1_1_unit230.mp3,0,0,0,0,0,1,,,,,,,,,,,,,,,,,,
,,,,,,,,,,,,,train53_audtrain1,2024-01-28_20h46.08.934,AudTraining1,2021.2.3,MacIntel,83.33333333,,,,,,,,,,,,,,RegPatterns/24-ms_4_2_2_1_1_1_1_unit230.mp3,0,1,0,1,0,1,,,,,,,,,,,,,,,,,,
,,,,,,,,,,,,,train53_audtrain1,2024-01-28_20h46.08.934,AudTraining1,2021.2.3,MacIntel,83.33333333,,,,,,,,,,,,,,RegPatterns/24d-ms_4_2_1_1_2_1_1_unit230.mp3,3,2,0,2,0,1,,,,,,,,,,,,,,,,,,
,,,,,,,,,,,,,train53_audtrain1,2024-01-28_20h46.08.934,AudTraining1,2021.2.3,MacIntel,83.33333333,,,,,,,,,,,,,,,,,,,,,2,0.456,2,2,26,9,1,RegPatterns/24-ms_4_2_2_1_1_1_1_unit230.mp3,RegPatterns/24d-ms_4_2_1_1_2_1_1_unit230.mp3,,,,,,,,,
,,,,,,,,,,,,,train53_audtrain1,2024-01-28_20h46.08.934,AudTraining1,2021.2.3,MacIntel,83.33333333,,,,,,,,,,,,,,RegPatterns/27-ms_1_1_2_3_1_1_3_unit270.mp3,0,0,0,0,0,1,,,,,,,,,,,,,,,,,,
,,,,,,,,,,,,,train53_audtrain1,2024-01-28_20h46.08.934,AudTraining1,2021.2.3,MacIntel,83.33333333,,,,,,,,,,,,,,RegPatterns/27d-ms_1_1_2_3_1_3_1_unit270.mp3,2,1,0,1,0,1,,,,,,,,,,,,,,,,,,
,,,,,,,,,,,,,train53_audtrain1,2024-01-28_20h46.08.934,AudTraining1,2021.2.3,MacIntel,83.33333333,,,,,,,,,,,,,,RegPatterns/27-ms_1_1_2_3_1_1_3_unit270.mp3,0,2,0,2,0,1,,,,,,,,,,,,,,,,,,
,,,,,,,,,,,,,train53_audtrain1,2024-01-28_20h46.08.934,AudTraining1,2021.2.3,MacIntel,83.33333333,,,,,,,,,,,,,,,,,,,,,3,0.553,2,3,27,10,1,RegPatterns/27-ms_1_1_2_3_1_1_3_unit270.mp3,RegPatterns/27d-ms_1_1_2_3_1_3_1_unit270.mp3,,,,,,,,,
,,,,,,,,,,,,,train53_audtrain1,2024-01-28_20h46.08.934,AudTraining1,2021.2.3,MacIntel,83.33333333,,,,,,,,,,,,,,RegPatterns/04-ms_4_1_3_3_1_unit230.mp3,0,0,0,0,0,1,,,,,,,,,,,,,,,,,,
,,,,,,,,,,,,,train53_audtrain1,2024-01-28_20h46.08.934,AudTraining1,2021.2.3,MacIntel,83.33333333,,,,,,,,,,,,,,RegPatterns/04d-ms_4_3_1_3_1_unit230.mp3,2,1,0,1,0,1,,,,,,,,,,,,,,,,,,
,,,,,,,,,,,,,train53_audtrain1,2024-01-28_20h46.08.934,AudTraining1,2021.2.3,MacIntel,83.33333333,,,,,,,,,,,,,,RegPatterns/04-ms_4_1_3_3_1_unit230.mp3,0,2,0,2,0,1,,,,,,,,,,,,,,,,,,
,,,,,,,,,,,,,train53_audtrain1,2024-01-28_20h46.08.934,AudTraining1,2021.2.3,MacIntel,83.33333333,,,,,,,,,,,,,,,,,,,,,1,0.457,2,4,28,0,1,RegPatterns/04-ms_4_1_3_3_1_unit230.mp3,RegPatterns/04d-ms_4_3_1_3_1_unit230.mp3,,,,,,,,,
,,,,,,,,,,,,,train53_audtrain1,2024-01-28_20h46.08.934,AudTraining1,2021.2.3,MacIntel,83.33333333,,,,,,,,,,,,,,RegPatterns/23d-ms_4_1_1_1_1_1_3_unit250.mp3,1,0,0,0,0,1,,,,,,,,,,,,,,,,,,
,,,,,,,,,,,,,train53_audtrain1,2024-01-28_20h46.08.934,AudTraining1,2021.2.3,MacIntel,83.33333333,,,,,,,,,,,,,,RegPatterns/23-ms_4_1_1_1_1_3_1_unit250.mp3,0,1,0,1,0,1,,,,,,,,,,,,,,,,,,
,,,,,,,,,,,,,train53_audtrain1,2024-01-28_20h46.08.934,AudTraining1,2021.2.3,MacIntel,83.33333333,,,,,,,,,,,,,,RegPatterns/23-ms_4_1_1_1_1_3_1_unit250.mp3,0,2,0,2,0,1,,,,,,,,,,,,,,,,,,
,,,,,,,,,,,,,train53_audtrain1,2024-01-28_20h46.08.934,AudTraining1,2021.2.3,MacIntel,83.33333333,,,,,,,,,,,,,,,,,,,,,2,0.346,2,5,29,8,1,RegPatterns/23-ms_4_1_1_1_1_3_1_unit250.mp3,RegPatterns/23d-ms_4_1_1_1_1_1_3_unit250.mp3,,,,,,,,,
,,,,,,,,,,,,,train53_audtrain1,2024-01-28_20h46.08.934,AudTraining1,2021.2.3,MacIntel,83.33333333,,,,,,,,,,,,,,RegPatterns/21-ms_2_1_1_3_1_1_3_unit270.mp3,0,0,0,0,0,1,,,,,,,,,,,,,,,,,,
,,,,,,,,,,,,,train53_audtrain1,2024-01-28_20h46.08.934,AudTraining1,2021.2.3,MacIntel,83.33333333,,,,,,,,,,,,,,RegPatterns/21d-ms_2_1_1_3_1_3_1_unit270.mp3,2,1,0,1,0,1,,,,,,,,,,,,,,,,,,
,,,,,,,,,,,,,train53_audtrain1,2024-01-28_20h46.08.934,AudTraining1,2021.2.3,MacIntel,83.33333333,,,,,,,,,,,,,,RegPatterns/21-ms_2_1_1_3_1_1_3_unit270.mp3,0,2,0,2,0,1,,,,,,,,,,,,,,,,,,
,,,,,,,,,,,,,train53_audtrain1,2024-01-28_20h46.08.934,AudTraining1,2021.2.3,MacIntel,83.33333333,,,,,,,,,,,,,,,,,,,,,1,1.269,2,6,30,7,1,RegPatterns/21-ms_2_1_1_3_1_1_3_unit270.mp3,RegPatterns/21d-ms_2_1_1_3_1_3_1_unit270.mp3,,,,,,,,,
,,,,,,,,,,,,,train53_audtrain1,2024-01-28_20h46.08.934,AudTraining1,2021.2.3,MacIntel,83.33333333,,,,,,,,,,,,,,RegPatterns/17d-ms_4_1_1_2_1_3_unit250.mp3,1,0,0,0,0,1,,,,,,,,,,,,,,,,,,
,,,,,,,,,,,,,train53_audtrain1,2024-01-28_20h46.08.934,AudTraining1,2021.2.3,MacIntel,83.33333333,,,,,,,,,,,,,,RegPatterns/17-ms_4_1_1_2_3_1_unit250.mp3,0,1,0,1,0,1,,,,,,,,,,,,,,,,,,
,,,,,,,,,,,,,train53_audtrain1,2024-01-28_20h46.08.934,AudTraining1,2021.2.3,MacIntel,83.33333333,,,,,,,,,,,,,,RegPatterns/17-ms_4_1_1_2_3_1_unit250.mp3,0,2,0,2,0,1,,,,,,,,,,,,,,,,,,
,,,,,,,,,,,,,train53_audtrain1,2024-01-28_20h46.08.934,AudTraining1,2021.2.3,MacIntel,83.33333333,,,,,,,,,,,,,,,,,,,,,3,1.299,2,7,31,6,1,RegPatterns/17-ms_4_1_1_2_3_1_unit250.mp3,RegPatterns/17d-ms_4_1_1_2_1_3_unit250.mp3,,,,,,,,,
,,,,,,,,,,,,,train53_audtrain1,2024-01-28_20h46.08.934,AudTraining1,2021.2.3,MacIntel,83.33333333,,,,,,,,,,,,,,RegPatterns/11-ms_2_2_3_1_1_3_unit250.mp3,0,0,0,0,0,1,,,,,,,,,,,,,,,,,,
,,,,,,,,,,,,,train53_audtrain1,2024-01-28_20h46.08.934,AudTraining1,2021.2.3,MacIntel,83.33333333,,,,,,,,,,,,,,RegPatterns/11d-ms_2_2_3_1_3_1_unit250.mp3,2,1,0,1,0,1,,,,,,,,,,,,,,,,,,
,,,,,,,,,,,,,train53_audtrain1,2024-01-28_20h46.08.934,AudTraining1,2021.2.3,MacIntel,83.33333333,,,,,,,,,,,,,,RegPatterns/11-ms_2_2_3_1_1_3_unit250.mp3,0,2,0,2,0,1,,,,,,,,,,,,,,,,,,
,,,,,,,,,,,,,train53_audtrain1,2024-01-28_20h46.08.934,AudTraining1,2021.2.3,MacIntel,83.33333333,,,,,,,,,,,,,,,,,,,,,2,4.708,2,8,32,3,1,RegPatterns/11-ms_2_2_3_1_1_3_unit250.mp3,RegPatterns/11d-ms_2_2_3_1_3_1_unit250.mp3,,,,,,,,,
,,,,,,,,,,,,,train53_audtrain1,2024-01-28_20h46.08.934,AudTraining1,2021.2.3,MacIntel,83.33333333,,,,,,,,,,,,,,RegPatterns/06-ms_4_3_1_2_2_unit270.mp3,0,0,0,0,0,1,,,,,,,,,,,,,,,,,,
,,,,,,,,,,,,,train53_audtrain1,2024-01-28_20h46.08.934,AudTraining1,2021.2.3,MacIntel,83.33333333,,,,,,,,,,,,,,RegPatterns/06-ms_4_3_1_2_2_unit270.mp3,0,1,0,1,0,1,,,,,,,,,,,,,,,,,,
,,,,,,,,,,,,,train53_audtrain1,2024-01-28_20h46.08.934,AudTraining1,2021.2.3,MacIntel,83.33333333,,,,,,,,,,,,,,RegPatterns/06d-ms_4_1_3_2_2_unit270.mp3,3,2,0,2,0,1,,,,,,,,,,,,,,,,,,
,,,,,,,,,,,,,train53_audtrain1,2024-01-28_20h46.08.934,AudTraining1,2021.2.3,MacIntel,83.33333333,,,,,,,,,,,,,,,,,,,,,3,0.463,2,9,33,1,1,RegPatterns/06-ms_4_3_1_2_2_unit270.mp3,RegPatterns/06d-ms_4_1_3_2_2_unit270.mp3,,,,,,,,,
,,,,,,,,,,,,,train53_audtrain1,2024-01-28_20h46.08.934,AudTraining1,2021.2.3,MacIntel,83.33333333,,,,,,,,,,,,,,RegPatterns/07d-ms_1_1_2_1_3_4_unit230.mp3,1,0,0,0,0,1,,,,,,,,,,,,,,,,,,
,,,,,,,,,,,,,train53_audtrain1,2024-01-28_20h46.08.934,AudTraining1,2021.2.3,MacIntel,83.33333333,,,,,,,,,,,,,,RegPatterns/07-ms_1_1_2_3_1_4_unit230.mp3,0,1,0,1,0,1,,,,,,,,,,,,,,,,,,
,,,,,,,,,,,,,train53_audtrain1,2024-01-28_20h46.08.934,AudTraining1,2021.2.3,MacIntel,83.33333333,,,,,,,,,,,,,,RegPatterns/07-ms_1_1_2_3_1_4_unit230.mp3,0,2,0,2,0,1,,,,,,,,,,,,,,,,,,
,,,,,,,,,,,,,train53_audtrain1,2024-01-28_20h46.08.934,AudTraining1,2021.2.3,MacIntel,83.33333333,,,,,,,,,,,,,,,,,,,,,1,0.932,2,10,34,2,1,RegPatterns/07-ms_1_1_2_3_1_4_unit230.mp3,RegPatterns/07d-ms_1_1_2_1_3_4_unit230.mp3,,,,,,,,,
,,,,,,,,,,,,,train53_audtrain1,2024-01-28_20h46.08.934,AudTraining1,2021.2.3,MacIntel,83.33333333,,,,,,,,,,,,,,RegPatterns/13-ms_2_1_1_2_2_4_unit230.mp3,0,0,0,0,0,1,,,,,,,,,,,,,,,,,,
,,,,,,,,,,,,,train53_audtrain1,2024-01-28_20h46.08.934,AudTraining1,2021.2.3,MacIntel,83.33333333,,,,,,,,,,,,,,RegPatterns/13d-ms_1_1_2_2_2_4_unit230.mp3,2,1,0,1,0,1,,,,,,,,,,,,,,,,,,
,,,,,,,,,,,,,train53_audtrain1,2024-01-28_20h46.08.934,AudTraining1,2021.2.3,MacIntel,83.33333333,,,,,,,,,,,,,,RegPatterns/13-ms_2_1_1_2_2_4_unit230.mp3,0,2,0,2,0,1,,,,,,,,,,,,,,,,,,
,,,,,,,,,,,,,train53_audtrain1,2024-01-28_20h46.08.934,AudTraining1,2021.2.3,MacIntel,83.33333333,,,,,,,,,,,,,,,,,,,,,2,0.303,2,11,35,4,1,RegPatterns/13-ms_2_1_1_2_2_4_unit230.mp3,RegPatterns/13d-ms_1_1_2_2_2_4_unit230.mp3,,,,,,,,,
,,,,,,,,,,,,,train53_audtrain1,2024-01-28_20h46.08.934,AudTraining1,2021.2.3,MacIntel,83.33333333,,,,,,,,,,,,,,,,,,,,,,,,,,,,,,,,,,,,,space,1.453
