key_resp.keys,key_resp.rt,key_resp_2.keys,key_resp_2.rt,key_resp_3.keys,key_resp_3.rt,trials.thisRepN,trials.thisTrialN,trials.thisN,trials.thisIndex,trials.ran,volstandard,voldeviant,participant,date,expName,psychopyVersion,OS,frameRate,key_resp_4.keys,key_resp_4.rt,key_resp_5.keys,key_resp_5.rt,trials_2.thisRepN,trials_2.thisTrialN,trials_2.thisN,trials_2.thisIndex,trials_2.ran,RegStandardPitch,RegDeviantPitch,key_resp_6.keys,key_resp_6.rt,RegAudSequence,diff-reg,trials_3.thisRepN,trials_3.thisTrialN,trials_3.thisN,trials_3.thisIndex,trials_3.ran,key_resp_7.keys,key_resp_7.rt,trials_5.thisRepN,trials_5.thisTrialN,trials_5.thisN,trials_5.thisIndex,trials_5.ran,standard,devient,key_resp_8.keys,key_resp_8.rt,trials_4.thisRepN,trials_4.thisTrialN,trials_4.thisN,trials_4.thisIndex,trials_4.ran,key_resp_9.keys,key_resp_9.rt
space,9.9736,space,29.921,space,5.0176,0,0,0,0,1,RegPatterns/01-ms_2_2_4_1_3_unit230.mp3,RegPatterns/01d-ms_2_2_4_3_1_unit230.mp3,train3_audtrain2,2023-11-07_11h11.20.273,AudTraining2,2021.2.3,Win32,59.82650314,,,,,,,,,,,,,,,,,,,,,,,,,,,,,,,,,,,,,,
,,,,,,,,,,,,,train3_audtrain2,2023-11-07_11h11.20.273,AudTraining2,2021.2.3,Win32,59.82650314,space,2.5562,g,1.1235,0,0,0,0,1,RegPatterns/Noise.mp3,RegPatterns/Noise.mp3,,,,,,,,,,,,,,,,,,,,,,,,,,,
,,,,,,,,,,,,,train3_audtrain2,2023-11-07_11h11.20.273,AudTraining2,2021.2.3,Win32,59.82650314,,,,,,,,,,,,space,2.6211,RegPatterns/30-ms_3_1_2_2_1_1_2_unit230.mp3,0,0,0,0,0,1,,,,,,,,,,,,,,,,,,
,,,,,,,,,,,,,train3_audtrain2,2023-11-07_11h11.20.273,AudTraining2,2021.2.3,Win32,59.82650314,,,,,,,,,,,,,,RegPatterns/30d-ms_1_3_2_2_1_1_2_unit230.mp3,2,1,0,1,0,1,,,,,,,,,,,,,,,,,,
,,,,,,,,,,,,,train3_audtrain2,2023-11-07_11h11.20.273,AudTraining2,2021.2.3,Win32,59.82650314,,,,,,,,,,,,,,RegPatterns/30-ms_3_1_2_2_1_1_2_unit230.mp3,0,2,0,2,0,1,,,,,,,,,,,,,,,,,,
,,,,,,,,,,,,,train3_audtrain2,2023-11-07_11h11.20.273,AudTraining2,2021.2.3,Win32,59.82650314,,,,,,,,,,,,,,,,,,,,,2,0.4406,0,0,0,10,1,RegPatterns/30-ms_3_1_2_2_1_1_2_unit230.mp3,RegPatterns/30d-ms_1_3_2_2_1_1_2_unit230.mp3,,,,,,,,,
,,,,,,,,,,,,,train3_audtrain2,2023-11-07_11h11.20.273,AudTraining2,2021.2.3,Win32,59.82650314,,,,,,,,,,,,,,RegPatterns/09-ms_2_1_1_1_3_4_unit270.mp3,0,0,0,0,0,1,,,,,,,,,,,,,,,,,,
,,,,,,,,,,,,,train3_audtrain2,2023-11-07_11h11.20.273,AudTraining2,2021.2.3,Win32,59.82650314,,,,,,,,,,,,,,RegPatterns/09-ms_2_1_1_1_3_4_unit270.mp3,0,1,0,1,0,1,,,,,,,,,,,,,,,,,,
,,,,,,,,,,,,,train3_audtrain2,2023-11-07_11h11.20.273,AudTraining2,2021.2.3,Win32,59.82650314,,,,,,,,,,,,,,RegPatterns/09d-ms_2_1_1_3_1_4_unit270.mp3,3,2,0,2,0,1,,,,,,,,,,,,,,,,,,
,,,,,,,,,,,,,train3_audtrain2,2023-11-07_11h11.20.273,AudTraining2,2021.2.3,Win32,59.82650314,,,,,,,,,,,,,,,,,,,,,2,1.1536,0,1,1,2,1,RegPatterns/09-ms_2_1_1_1_3_4_unit270.mp3,RegPatterns/09d-ms_2_1_1_3_1_4_unit270.mp3,,,,,,,,,
,,,,,,,,,,,,,train3_audtrain2,2023-11-07_11h11.20.273,AudTraining2,2021.2.3,Win32,59.82650314,,,,,,,,,,,,,,RegPatterns/16d-ms_3_1_2_2_3_1_unit230.mp3,1,0,0,0,0,1,,,,,,,,,,,,,,,,,,
,,,,,,,,,,,,,train3_audtrain2,2023-11-07_11h11.20.273,AudTraining2,2021.2.3,Win32,59.82650314,,,,,,,,,,,,,,RegPatterns/16-ms_3_1_2_2_1_3_unit230.mp3,0,1,0,1,0,1,,,,,,,,,,,,,,,,,,
,,,,,,,,,,,,,train3_audtrain2,2023-11-07_11h11.20.273,AudTraining2,2021.2.3,Win32,59.82650314,,,,,,,,,,,,,,RegPatterns/16-ms_3_1_2_2_1_3_unit230.mp3,0,2,0,2,0,1,,,,,,,,,,,,,,,,,,
,,,,,,,,,,,,,train3_audtrain2,2023-11-07_11h11.20.273,AudTraining2,2021.2.3,Win32,59.82650314,,,,,,,,,,,,,,,,,,,,,1,0.403,0,2,2,5,1,RegPatterns/16-ms_3_1_2_2_1_3_unit230.mp3,RegPatterns/16d-ms_3_1_2_2_3_1_unit230.mp3,,,,,,,,,
,,,,,,,,,,,,,train3_audtrain2,2023-11-07_11h11.20.273,AudTraining2,2021.2.3,Win32,59.82650314,,,,,,,,,,,,,,RegPatterns/26-ms_1_1_2_2_1_1_4_unit250.mp3,0,0,0,0,0,1,,,,,,,,,,,,,,,,,,
,,,,,,,,,,,,,train3_audtrain2,2023-11-07_11h11.20.273,AudTraining2,2021.2.3,Win32,59.82650314,,,,,,,,,,,,,,RegPatterns/26-ms_1_1_2_2_1_1_4_unit250.mp3,0,1,0,1,0,1,,,,,,,,,,,,,,,,,,
,,,,,,,,,,,,,train3_audtrain2,2023-11-07_11h11.20.273,AudTraining2,2021.2.3,Win32,59.82650314,,,,,,,,,,,,,,RegPatterns/26d-ms_1_1_2_1_1_2_4_unit250.mp3,3,2,0,2,0,1,,,,,,,,,,,,,,,,,,
,,,,,,,,,,,,,train3_audtrain2,2023-11-07_11h11.20.273,AudTraining2,2021.2.3,Win32,59.82650314,,,,,,,,,,,,,,,,,,,,,3,0.2834,0,3,3,8,1,RegPatterns/26-ms_1_1_2_2_1_1_4_unit250.mp3,RegPatterns/26d-ms_1_1_2_1_1_2_4_unit250.mp3,,,,,,,,,
,,,,,,,,,,,,,train3_audtrain2,2023-11-07_11h11.20.273,AudTraining2,2021.2.3,Win32,59.82650314,,,,,,,,,,,,,,RegPatterns/29-ms_3_1_2_1_1_1_3_unit250.mp3,0,0,0,0,0,1,,,,,,,,,,,,,,,,,,
,,,,,,,,,,,,,train3_audtrain2,2023-11-07_11h11.20.273,AudTraining2,2021.2.3,Win32,59.82650314,,,,,,,,,,,,,,RegPatterns/29-ms_3_1_2_1_1_1_3_unit250.mp3,0,1,0,1,0,1,,,,,,,,,,,,,,,,,,
,,,,,,,,,,,,,train3_audtrain2,2023-11-07_11h11.20.273,AudTraining2,2021.2.3,Win32,59.82650314,,,,,,,,,,,,,,RegPatterns/29d-ms_3_1_2_1_1_3_1_unit250.mp3,3,2,0,2,0,1,,,,,,,,,,,,,,,,,,
,,,,,,,,,,,,,train3_audtrain2,2023-11-07_11h11.20.273,AudTraining2,2021.2.3,Win32,59.82650314,,,,,,,,,,,,,,,,,,,,,3,2.1419,0,4,4,9,1,RegPatterns/29-ms_3_1_2_1_1_1_3_unit250.mp3,RegPatterns/29d-ms_3_1_2_1_1_3_1_unit250.mp3,,,,,,,,,
,,,,,,,,,,,,,train3_audtrain2,2023-11-07_11h11.20.273,AudTraining2,2021.2.3,Win32,59.82650314,,,,,,,,,,,,,,RegPatterns/19-ms_1_1_2_3_1_2_2_unit230.mp3,0,0,0,0,0,1,,,,,,,,,,,,,,,,,,
,,,,,,,,,,,,,train3_audtrain2,2023-11-07_11h11.20.273,AudTraining2,2021.2.3,Win32,59.82650314,,,,,,,,,,,,,,RegPatterns/19d-ms_1_1_2_1_3_2_2_unit230.mp3,2,1,0,1,0,1,,,,,,,,,,,,,,,,,,
,,,,,,,,,,,,,train3_audtrain2,2023-11-07_11h11.20.273,AudTraining2,2021.2.3,Win32,59.82650314,,,,,,,,,,,,,,RegPatterns/19-ms_1_1_2_3_1_2_2_unit230.mp3,0,2,0,2,0,1,,,,,,,,,,,,,,,,,,
,,,,,,,,,,,,,train3_audtrain2,2023-11-07_11h11.20.273,AudTraining2,2021.2.3,Win32,59.82650314,,,,,,,,,,,,,,,,,,,,,2,0.5486,0,5,5,7,1,RegPatterns/19-ms_1_1_2_3_1_2_2_unit230.mp3,RegPatterns/19d-ms_1_1_2_1_3_2_2_unit230.mp3,,,,,,,,,
,,,,,,,,,,,,,train3_audtrain2,2023-11-07_11h11.20.273,AudTraining2,2021.2.3,Win32,59.82650314,,,,,,,,,,,,,,RegPatterns/18d-ms_4_2_2_2_1_1_unit270.mp3,1,0,0,0,0,1,,,,,,,,,,,,,,,,,,
,,,,,,,,,,,,,train3_audtrain2,2023-11-07_11h11.20.273,AudTraining2,2021.2.3,Win32,59.82650314,,,,,,,,,,,,,,RegPatterns/18-ms_4_2_2_1_1_2_unit270.mp3,0,1,0,1,0,1,,,,,,,,,,,,,,,,,,
,,,,,,,,,,,,,train3_audtrain2,2023-11-07_11h11.20.273,AudTraining2,2021.2.3,Win32,59.82650314,,,,,,,,,,,,,,RegPatterns/18-ms_4_2_2_1_1_2_unit270.mp3,0,2,0,2,0,1,,,,,,,,,,,,,,,,,,
,,,,,,,,,,,,,train3_audtrain2,2023-11-07_11h11.20.273,AudTraining2,2021.2.3,Win32,59.82650314,,,,,,,,,,,,,,,,,,,,,2,0.6047,0,6,6,6,1,RegPatterns/18-ms_4_2_2_1_1_2_unit270.mp3,RegPatterns/18d-ms_4_2_2_2_1_1_unit270.mp3,,,,,,,,,
,,,,,,,,,,,,,train3_audtrain2,2023-11-07_11h11.20.273,AudTraining2,2021.2.3,Win32,59.82650314,,,,,,,,,,,,,,RegPatterns/02d-ms_3_1_4_3_1_unit250.mp3,1,0,0,0,0,1,,,,,,,,,,,,,,,,,,
,,,,,,,,,,,,,train3_audtrain2,2023-11-07_11h11.20.273,AudTraining2,2021.2.3,Win32,59.82650314,,,,,,,,,,,,,,RegPatterns/02-ms_3_1_4_1_3_unit250.mp3,0,1,0,1,0,1,,,,,,,,,,,,,,,,,,
,,,,,,,,,,,,,train3_audtrain2,2023-11-07_11h11.20.273,AudTraining2,2021.2.3,Win32,59.82650314,,,,,,,,,,,,,,RegPatterns/02-ms_3_1_4_1_3_unit250.mp3,0,2,0,2,0,1,,,,,,,,,,,,,,,,,,
,,,,,,,,,,,,,train3_audtrain2,2023-11-07_11h11.20.273,AudTraining2,2021.2.3,Win32,59.82650314,,,,,,,,,,,,,,,,,,,,,1,0.465,0,7,7,0,1,RegPatterns/02-ms_3_1_4_1_3_unit250.mp3,RegPatterns/02d-ms_3_1_4_3_1_unit250.mp3,,,,,,,,,
,,,,,,,,,,,,,train3_audtrain2,2023-11-07_11h11.20.273,AudTraining2,2021.2.3,Win32,59.82650314,,,,,,,,,,,,,,RegPatterns/20-ms_2_1_1_2_2_3_1_unit230.mp3,0,0,0,0,0,1,,,,,,,,,,,,,,,,,,
,,,,,,,,,,,,,train3_audtrain2,2023-11-07_11h11.20.273,AudTraining2,2021.2.3,Win32,59.82650314,,,,,,,,,,,,,,RegPatterns/20d-ms_2_1_1_2_2_1_3_unit230.mp3,2,1,0,1,0,1,,,,,,,,,,,,,,,,,,
,,,,,,,,,,,,,train3_audtrain2,2023-11-07_11h11.20.273,AudTraining2,2021.2.3,Win32,59.82650314,,,,,,,,,,,,,,RegPatterns/20-ms_2_1_1_2_2_3_1_unit230.mp3,0,2,0,2,0,1,,,,,,,,,,,,,,,,,,
,,,,,,,,,,,,,train3_audtrain2,2023-11-07_11h11.20.273,AudTraining2,2021.2.3,Win32,59.82650314,,,,,,,,,,,,,,,,,,,,,3,1.0236,0,8,8,11,1,RegPatterns/20-ms_2_1_1_2_2_3_1_unit230.mp3,RegPatterns/20d-ms_2_1_1_2_2_1_3_unit230.mp3,,,,,,,,,
,,,,,,,,,,,,,train3_audtrain2,2023-11-07_11h11.20.273,AudTraining2,2021.2.3,Win32,59.82650314,,,,,,,,,,,,,,RegPatterns/03-ms_3_1_4_2_2_unit270.mp3,0,0,0,0,0,1,,,,,,,,,,,,,,,,,,
,,,,,,,,,,,,,train3_audtrain2,2023-11-07_11h11.20.273,AudTraining2,2021.2.3,Win32,59.82650314,,,,,,,,,,,,,,RegPatterns/03-ms_3_1_4_2_2_unit270.mp3,0,1,0,1,0,1,,,,,,,,,,,,,,,,,,
,,,,,,,,,,,,,train3_audtrain2,2023-11-07_11h11.20.273,AudTraining2,2021.2.3,Win32,59.82650314,,,,,,,,,,,,,,RegPatterns/03d-ms_1_3_4_2_2_unit270.mp3,3,2,0,2,0,1,,,,,,,,,,,,,,,,,,
,,,,,,,,,,,,,train3_audtrain2,2023-11-07_11h11.20.273,AudTraining2,2021.2.3,Win32,59.82650314,,,,,,,,,,,,,,,,,,,,,3,0.5276,0,9,9,1,1,RegPatterns/03-ms_3_1_4_2_2_unit270.mp3,RegPatterns/03d-ms_1_3_4_2_2_unit270.mp3,,,,,,,,,
,,,,,,,,,,,,,train3_audtrain2,2023-11-07_11h11.20.273,AudTraining2,2021.2.3,Win32,59.82650314,,,,,,,,,,,,,,RegPatterns/12d-ms_3_1_3_1_2_2_unit270.mp3,1,0,0,0,0,1,,,,,,,,,,,,,,,,,,
,,,,,,,,,,,,,train3_audtrain2,2023-11-07_11h11.20.273,AudTraining2,2021.2.3,Win32,59.82650314,,,,,,,,,,,,,,RegPatterns/12-ms_3_1_1_3_2_2_unit270.mp3,0,1,0,1,0,1,,,,,,,,,,,,,,,,,,
,,,,,,,,,,,,,train3_audtrain2,2023-11-07_11h11.20.273,AudTraining2,2021.2.3,Win32,59.82650314,,,,,,,,,,,,,,RegPatterns/12-ms_3_1_1_3_2_2_unit270.mp3,0,2,0,2,0,1,,,,,,,,,,,,,,,,,,
,,,,,,,,,,,,,train3_audtrain2,2023-11-07_11h11.20.273,AudTraining2,2021.2.3,Win32,59.82650314,,,,,,,,,,,,,,,,,,,,,1,0.3592,0,10,10,3,1,RegPatterns/12-ms_3_1_1_3_2_2_unit270.mp3,RegPatterns/12d-ms_3_1_3_1_2_2_unit270.mp3,,,,,,,,,
,,,,,,,,,,,,,train3_audtrain2,2023-11-07_11h11.20.273,AudTraining2,2021.2.3,Win32,59.82650314,,,,,,,,,,,,,,RegPatterns/14-ms_2_1_1_4_1_3_unit250.mp3,0,0,0,0,0,1,,,,,,,,,,,,,,,,,,
,,,,,,,,,,,,,train3_audtrain2,2023-11-07_11h11.20.273,AudTraining2,2021.2.3,Win32,59.82650314,,,,,,,,,,,,,,RegPatterns/14d-ms_2_1_1_4_3_1_unit250.mp3,2,1,0,1,0,1,,,,,,,,,,,,,,,,,,
,,,,,,,,,,,,,train3_audtrain2,2023-11-07_11h11.20.273,AudTraining2,2021.2.3,Win32,59.82650314,,,,,,,,,,,,,,RegPatterns/14-ms_2_1_1_4_1_3_unit250.mp3,0,2,0,2,0,1,,,,,,,,,,,,,,,,,,
,,,,,,,,,,,,,train3_audtrain2,2023-11-07_11h11.20.273,AudTraining2,2021.2.3,Win32,59.82650314,,,,,,,,,,,,,,,,,,,,,1,0.2847,0,11,11,4,1,RegPatterns/14-ms_2_1_1_4_1_3_unit250.mp3,RegPatterns/14d-ms_2_1_1_4_3_1_unit250.mp3,,,,,,,,,
,,,,,,,,,,,,,train3_audtrain2,2023-11-07_11h11.20.273,AudTraining2,2021.2.3,Win32,59.82650314,,,,,,,,,,,,,,RegPatterns/02-ms_3_1_4_1_3_unit250.mp3,0,0,0,0,0,1,,,,,,,,,,,,,,,,,,
,,,,,,,,,,,,,train3_audtrain2,2023-11-07_11h11.20.273,AudTraining2,2021.2.3,Win32,59.82650314,,,,,,,,,,,,,,RegPatterns/02-ms_3_1_4_1_3_unit250.mp3,0,1,0,1,0,1,,,,,,,,,,,,,,,,,,
,,,,,,,,,,,,,train3_audtrain2,2023-11-07_11h11.20.273,AudTraining2,2021.2.3,Win32,59.82650314,,,,,,,,,,,,,,RegPatterns/02d-ms_3_1_4_3_1_unit250.mp3,3,2,0,2,0,1,,,,,,,,,,,,,,,,,,
,,,,,,,,,,,,,train3_audtrain2,2023-11-07_11h11.20.273,AudTraining2,2021.2.3,Win32,59.82650314,,,,,,,,,,,,,,,,,,,,,3,0.4676,1,0,12,0,1,RegPatterns/02-ms_3_1_4_1_3_unit250.mp3,RegPatterns/02d-ms_3_1_4_3_1_unit250.mp3,,,,,,,,,
,,,,,,,,,,,,,train3_audtrain2,2023-11-07_11h11.20.273,AudTraining2,2021.2.3,Win32,59.82650314,,,,,,,,,,,,,,RegPatterns/18-ms_4_2_2_1_1_2_unit270.mp3,0,0,0,0,0,1,,,,,,,,,,,,,,,,,,
,,,,,,,,,,,,,train3_audtrain2,2023-11-07_11h11.20.273,AudTraining2,2021.2.3,Win32,59.82650314,,,,,,,,,,,,,,RegPatterns/18-ms_4_2_2_1_1_2_unit270.mp3,0,1,0,1,0,1,,,,,,,,,,,,,,,,,,
,,,,,,,,,,,,,train3_audtrain2,2023-11-07_11h11.20.273,AudTraining2,2021.2.3,Win32,59.82650314,,,,,,,,,,,,,,RegPatterns/18d-ms_4_2_2_2_1_1_unit270.mp3,3,2,0,2,0,1,,,,,,,,,,,,,,,,,,
,,,,,,,,,,,,,train3_audtrain2,2023-11-07_11h11.20.273,AudTraining2,2021.2.3,Win32,59.82650314,,,,,,,,,,RegPatterns/Noise.mp3,RegPatterns/Noise.mp3,,,,,,,,,,3,0.3341,,,,,,,,g,0.5107,0,0,0,0,1,,
,,,,,,,,,,,,,train3_audtrain2,2023-11-07_11h11.20.273,AudTraining2,2021.2.3,Win32,59.82650314,,,,,,,,,,,,,,,,,,,,,,,1,1,13,6,1,RegPatterns/18-ms_4_2_2_1_1_2_unit270.mp3,RegPatterns/18d-ms_4_2_2_2_1_1_unit270.mp3,,,,,,,,,
,,,,,,,,,,,,,train3_audtrain2,2023-11-07_11h11.20.273,AudTraining2,2021.2.3,Win32,59.82650314,,,,,,,,,,,,,,RegPatterns/12-ms_3_1_1_3_2_2_unit270.mp3,0,0,0,0,0,1,,,,,,,,,,,,,,,,,,
,,,,,,,,,,,,,train3_audtrain2,2023-11-07_11h11.20.273,AudTraining2,2021.2.3,Win32,59.82650314,,,,,,,,,,,,,,RegPatterns/12d-ms_3_1_3_1_2_2_unit270.mp3,2,1,0,1,0,1,,,,,,,,,,,,,,,,,,
,,,,,,,,,,,,,train3_audtrain2,2023-11-07_11h11.20.273,AudTraining2,2021.2.3,Win32,59.82650314,,,,,,,,,,,,,,RegPatterns/12-ms_3_1_1_3_2_2_unit270.mp3,0,2,0,2,0,1,,,,,,,,,,,,,,,,,,
,,,,,,,,,,,,,train3_audtrain2,2023-11-07_11h11.20.273,AudTraining2,2021.2.3,Win32,59.82650314,,,,,,,,,,,,,,,,,,,,,3,0.4011,1,2,14,3,1,RegPatterns/12-ms_3_1_1_3_2_2_unit270.mp3,RegPatterns/12d-ms_3_1_3_1_2_2_unit270.mp3,,,,,,,,,
,,,,,,,,,,,,,train3_audtrain2,2023-11-07_11h11.20.273,AudTraining2,2021.2.3,Win32,59.82650314,,,,,,,,,,,,,,RegPatterns/16-ms_3_1_2_2_1_3_unit230.mp3,0,0,0,0,0,1,,,,,,,,,,,,,,,,,,
,,,,,,,,,,,,,train3_audtrain2,2023-11-07_11h11.20.273,AudTraining2,2021.2.3,Win32,59.82650314,,,,,,,,,,,,,,RegPatterns/16-ms_3_1_2_2_1_3_unit230.mp3,0,1,0,1,0,1,,,,,,,,,,,,,,,,,,
,,,,,,,,,,,,,train3_audtrain2,2023-11-07_11h11.20.273,AudTraining2,2021.2.3,Win32,59.82650314,,,,,,,,,,,,,,RegPatterns/16d-ms_3_1_2_2_3_1_unit230.mp3,3,2,0,2,0,1,,,,,,,,,,,,,,,,,,
,,,,,,,,,,,,,train3_audtrain2,2023-11-07_11h11.20.273,AudTraining2,2021.2.3,Win32,59.82650314,,,,,,,,,,,,,,,,,,,,,3,2.3681,1,3,15,5,1,RegPatterns/16-ms_3_1_2_2_1_3_unit230.mp3,RegPatterns/16d-ms_3_1_2_2_3_1_unit230.mp3,,,,,,,,,
,,,,,,,,,,,,,train3_audtrain2,2023-11-07_11h11.20.273,AudTraining2,2021.2.3,Win32,59.82650314,,,,,,,,,,,,,,RegPatterns/30-ms_3_1_2_2_1_1_2_unit230.mp3,0,0,0,0,0,1,,,,,,,,,,,,,,,,,,
,,,,,,,,,,,,,train3_audtrain2,2023-11-07_11h11.20.273,AudTraining2,2021.2.3,Win32,59.82650314,,,,,,,,,,,,,,RegPatterns/30-ms_3_1_2_2_1_1_2_unit230.mp3,0,1,0,1,0,1,,,,,,,,,,,,,,,,,,
,,,,,,,,,,,,,train3_audtrain2,2023-11-07_11h11.20.273,AudTraining2,2021.2.3,Win32,59.82650314,,,,,,,,,,,,,,RegPatterns/30d-ms_1_3_2_2_1_1_2_unit230.mp3,3,2,0,2,0,1,,,,,,,,,,,,,,,,,,
,,,,,,,,,,,,,train3_audtrain2,2023-11-07_11h11.20.273,AudTraining2,2021.2.3,Win32,59.82650314,,,,,,,,,,,,,,,,,,,,,3,0.3034,1,4,16,10,1,RegPatterns/30-ms_3_1_2_2_1_1_2_unit230.mp3,RegPatterns/30d-ms_1_3_2_2_1_1_2_unit230.mp3,,,,,,,,,
,,,,,,,,,,,,,train3_audtrain2,2023-11-07_11h11.20.273,AudTraining2,2021.2.3,Win32,59.82650314,,,,,,,,,,,,,,RegPatterns/19d-ms_1_1_2_1_3_2_2_unit230.mp3,1,0,0,0,0,1,,,,,,,,,,,,,,,,,,
,,,,,,,,,,,,,train3_audtrain2,2023-11-07_11h11.20.273,AudTraining2,2021.2.3,Win32,59.82650314,,,,,,,,,,,,,,RegPatterns/19-ms_1_1_2_3_1_2_2_unit230.mp3,0,1,0,1,0,1,,,,,,,,,,,,,,,,,,
,,,,,,,,,,,,,train3_audtrain2,2023-11-07_11h11.20.273,AudTraining2,2021.2.3,Win32,59.82650314,,,,,,,,,,,,,,RegPatterns/19-ms_1_1_2_3_1_2_2_unit230.mp3,0,2,0,2,0,1,,,,,,,,,,,,,,,,,,
,,,,,,,,,,,,,train3_audtrain2,2023-11-07_11h11.20.273,AudTraining2,2021.2.3,Win32,59.82650314,,,,,,,,,,,,,,,,,,,,,1,0.3875,1,5,17,7,1,RegPatterns/19-ms_1_1_2_3_1_2_2_unit230.mp3,RegPatterns/19d-ms_1_1_2_1_3_2_2_unit230.mp3,,,,,,,,,
,,,,,,,,,,,,,train3_audtrain2,2023-11-07_11h11.20.273,AudTraining2,2021.2.3,Win32,59.82650314,,,,,,,,,,,,,,RegPatterns/29d-ms_3_1_2_1_1_3_1_unit250.mp3,1,0,0,0,0,1,,,,,,,,,,,,,,,,,,
,,,,,,,,,,,,,train3_audtrain2,2023-11-07_11h11.20.273,AudTraining2,2021.2.3,Win32,59.82650314,,,,,,,,,,,,,,RegPatterns/29-ms_3_1_2_1_1_1_3_unit250.mp3,0,1,0,1,0,1,,,,,,,,,,,,,,,,,,
,,,,,,,,,,,,,train3_audtrain2,2023-11-07_11h11.20.273,AudTraining2,2021.2.3,Win32,59.82650314,,,,,,,,,,,,,,RegPatterns/29-ms_3_1_2_1_1_1_3_unit250.mp3,0,2,0,2,0,1,,,,,,,,,,,,,,,,,,
,,,,,,,,,,,,,train3_audtrain2,2023-11-07_11h11.20.273,AudTraining2,2021.2.3,Win32,59.82650314,,,,,,,,,,,,,,,,,,,,,1,0.2683,1,6,18,9,1,RegPatterns/29-ms_3_1_2_1_1_1_3_unit250.mp3,RegPatterns/29d-ms_3_1_2_1_1_3_1_unit250.mp3,,,,,,,,,
,,,,,,,,,,,,,train3_audtrain2,2023-11-07_11h11.20.273,AudTraining2,2021.2.3,Win32,59.82650314,,,,,,,,,,,,,,RegPatterns/03d-ms_1_3_4_2_2_unit270.mp3,1,0,0,0,0,1,,,,,,,,,,,,,,,,,,
,,,,,,,,,,,,,train3_audtrain2,2023-11-07_11h11.20.273,AudTraining2,2021.2.3,Win32,59.82650314,,,,,,,,,,,,,,RegPatterns/03-ms_3_1_4_2_2_unit270.mp3,0,1,0,1,0,1,,,,,,,,,,,,,,,,,,
,,,,,,,,,,,,,train3_audtrain2,2023-11-07_11h11.20.273,AudTraining2,2021.2.3,Win32,59.82650314,,,,,,,,,,,,,,RegPatterns/03-ms_3_1_4_2_2_unit270.mp3,0,2,0,2,0,1,,,,,,,,,,,,,,,,,,
,,,,,,,,,,,,,train3_audtrain2,2023-11-07_11h11.20.273,AudTraining2,2021.2.3,Win32,59.82650314,,,,,,,,,,,,,,,,,,,,,3,1.0102,1,7,19,1,1,RegPatterns/03-ms_3_1_4_2_2_unit270.mp3,RegPatterns/03d-ms_1_3_4_2_2_unit270.mp3,,,,,,,,,
,,,,,,,,,,,,,train3_audtrain2,2023-11-07_11h11.20.273,AudTraining2,2021.2.3,Win32,59.82650314,,,,,,,,,,,,,,RegPatterns/26d-ms_1_1_2_1_1_2_4_unit250.mp3,1,0,0,0,0,1,,,,,,,,,,,,,,,,,,
,,,,,,,,,,,,,train3_audtrain2,2023-11-07_11h11.20.273,AudTraining2,2021.2.3,Win32,59.82650314,,,,,,,,,,,,,,RegPatterns/26-ms_1_1_2_2_1_1_4_unit250.mp3,0,1,0,1,0,1,,,,,,,,,,,,,,,,,,
,,,,,,,,,,,,,train3_audtrain2,2023-11-07_11h11.20.273,AudTraining2,2021.2.3,Win32,59.82650314,,,,,,,,,,,,,,RegPatterns/26-ms_1_1_2_2_1_1_4_unit250.mp3,0,2,0,2,0,1,,,,,,,,,,,,,,,,,,
,,,,,,,,,,,,,train3_audtrain2,2023-11-07_11h11.20.273,AudTraining2,2021.2.3,Win32,59.82650314,,,,,,,,,,,,,,,,,,,,,1,0.3759,1,8,20,8,1,RegPatterns/26-ms_1_1_2_2_1_1_4_unit250.mp3,RegPatterns/26d-ms_1_1_2_1_1_2_4_unit250.mp3,,,,,,,,,
,,,,,,,,,,,,,train3_audtrain2,2023-11-07_11h11.20.273,AudTraining2,2021.2.3,Win32,59.82650314,,,,,,,,,,,,,,RegPatterns/09-ms_2_1_1_1_3_4_unit270.mp3,0,0,0,0,0,1,,,,,,,,,,,,,,,,,,
,,,,,,,,,,,,,train3_audtrain2,2023-11-07_11h11.20.273,AudTraining2,2021.2.3,Win32,59.82650314,,,,,,,,,,,,,,RegPatterns/09d-ms_2_1_1_3_1_4_unit270.mp3,2,1,0,1,0,1,,,,,,,,,,,,,,,,,,
,,,,,,,,,,,,,train3_audtrain2,2023-11-07_11h11.20.273,AudTraining2,2021.2.3,Win32,59.82650314,,,,,,,,,,,,,,RegPatterns/09-ms_2_1_1_1_3_4_unit270.mp3,0,2,0,2,0,1,,,,,,,,,,,,,,,,,,
,,,,,,,,,,,,,train3_audtrain2,2023-11-07_11h11.20.273,AudTraining2,2021.2.3,Win32,59.82650314,,,,,,,,,,,,,,,,,,,,,2,0.2891,1,9,21,2,1,RegPatterns/09-ms_2_1_1_1_3_4_unit270.mp3,RegPatterns/09d-ms_2_1_1_3_1_4_unit270.mp3,,,,,,,,,
,,,,,,,,,,,,,train3_audtrain2,2023-11-07_11h11.20.273,AudTraining2,2021.2.3,Win32,59.82650314,,,,,,,,,,,,,,RegPatterns/14-ms_2_1_1_4_1_3_unit250.mp3,0,0,0,0,0,1,,,,,,,,,,,,,,,,,,
,,,,,,,,,,,,,train3_audtrain2,2023-11-07_11h11.20.273,AudTraining2,2021.2.3,Win32,59.82650314,,,,,,,,,,,,,,RegPatterns/14-ms_2_1_1_4_1_3_unit250.mp3,0,1,0,1,0,1,,,,,,,,,,,,,,,,,,
,,,,,,,,,,,,,train3_audtrain2,2023-11-07_11h11.20.273,AudTraining2,2021.2.3,Win32,59.82650314,,,,,,,,,,,,,,RegPatterns/14d-ms_2_1_1_4_3_1_unit250.mp3,3,2,0,2,0,1,,,,,,,,,,,,,,,,,,
,,,,,,,,,,,,,train3_audtrain2,2023-11-07_11h11.20.273,AudTraining2,2021.2.3,Win32,59.82650314,,,,,,,,,,,,,,,,,,,,,3,0.3513,1,10,22,4,1,RegPatterns/14-ms_2_1_1_4_1_3_unit250.mp3,RegPatterns/14d-ms_2_1_1_4_3_1_unit250.mp3,,,,,,,,,
,,,,,,,,,,,,,train3_audtrain2,2023-11-07_11h11.20.273,AudTraining2,2021.2.3,Win32,59.82650314,,,,,,,,,,,,,,RegPatterns/20d-ms_2_1_1_2_2_1_3_unit230.mp3,1,0,0,0,0,1,,,,,,,,,,,,,,,,,,
,,,,,,,,,,,,,train3_audtrain2,2023-11-07_11h11.20.273,AudTraining2,2021.2.3,Win32,59.82650314,,,,,,,,,,,,,,RegPatterns/20-ms_2_1_1_2_2_3_1_unit230.mp3,0,1,0,1,0,1,,,,,,,,,,,,,,,,,,
,,,,,,,,,,,,,train3_audtrain2,2023-11-07_11h11.20.273,AudTraining2,2021.2.3,Win32,59.82650314,,,,,,,,,,,,,,RegPatterns/20-ms_2_1_1_2_2_3_1_unit230.mp3,0,2,0,2,0,1,,,,,,,,,,,,,,,,,,
,,,,,,,,,,,,,train3_audtrain2,2023-11-07_11h11.20.273,AudTraining2,2021.2.3,Win32,59.82650314,,,,,,,,,,,,,,,,,,,,,2,1.2624,1,11,23,11,1,RegPatterns/20-ms_2_1_1_2_2_3_1_unit230.mp3,RegPatterns/20d-ms_2_1_1_2_2_1_3_unit230.mp3,,,,,,,,,
,,,,,,,,,,,,,train3_audtrain2,2023-11-07_11h11.20.273,AudTraining2,2021.2.3,Win32,59.82650314,,,,,,,,,,,,,,RegPatterns/12-ms_3_1_1_3_2_2_unit270.mp3,0,0,0,0,0,1,,,,,,,,,,,,,,,,,,
,,,,,,,,,,,,,train3_audtrain2,2023-11-07_11h11.20.273,AudTraining2,2021.2.3,Win32,59.82650314,,,,,,,,,,,,,,RegPatterns/12-ms_3_1_1_3_2_2_unit270.mp3,0,1,0,1,0,1,,,,,,,,,,,,,,,,,,
,,,,,,,,,,,,,train3_audtrain2,2023-11-07_11h11.20.273,AudTraining2,2021.2.3,Win32,59.82650314,,,,,,,,,,,,,,RegPatterns/12d-ms_3_1_3_1_2_2_unit270.mp3,3,2,0,2,0,1,,,,,,,,,,,,,,,,,,
,,,,,,,,,,,,,train3_audtrain2,2023-11-07_11h11.20.273,AudTraining2,2021.2.3,Win32,59.82650314,,,,,,,,,,,,,,,,,,,,,2,2.9672,2,0,24,3,1,RegPatterns/12-ms_3_1_1_3_2_2_unit270.mp3,RegPatterns/12d-ms_3_1_3_1_2_2_unit270.mp3,,,,,,,,,
,,,,,,,,,,,,,train3_audtrain2,2023-11-07_11h11.20.273,AudTraining2,2021.2.3,Win32,59.82650314,,,,,,,,,,,,,,RegPatterns/03-ms_3_1_4_2_2_unit270.mp3,0,0,0,0,0,1,,,,,,,,,,,,,,,,,,
,,,,,,,,,,,,,train3_audtrain2,2023-11-07_11h11.20.273,AudTraining2,2021.2.3,Win32,59.82650314,,,,,,,,,,,,,,RegPatterns/03d-ms_1_3_4_2_2_unit270.mp3,2,1,0,1,0,1,,,,,,,,,,,,,,,,,,
,,,,,,,,,,,,,train3_audtrain2,2023-11-07_11h11.20.273,AudTraining2,2021.2.3,Win32,59.82650314,,,,,,,,,,,,,,RegPatterns/03-ms_3_1_4_2_2_unit270.mp3,0,2,0,2,0,1,,,,,,,,,,,,,,,,,,
,,,,,,,,,,,,,train3_audtrain2,2023-11-07_11h11.20.273,AudTraining2,2021.2.3,Win32,59.82650314,,,,,,,,,,RegPatterns/Noise.mp3,RegPatterns/Noise.mp3,,,,,,,,,,2,0.2852,,,,,,,,g,0.7172,0,0,0,0,1,,
,,,,,,,,,,,,,train3_audtrain2,2023-11-07_11h11.20.273,AudTraining2,2021.2.3,Win32,59.82650314,,,,,,,,,,,,,,,,,,,,,,,2,1,25,1,1,RegPatterns/03-ms_3_1_4_2_2_unit270.mp3,RegPatterns/03d-ms_1_3_4_2_2_unit270.mp3,,,,,,,,,
,,,,,,,,,,,,,train3_audtrain2,2023-11-07_11h11.20.273,AudTraining2,2021.2.3,Win32,59.82650314,,,,,,,,,,,,,,RegPatterns/02-ms_3_1_4_1_3_unit250.mp3,0,0,0,0,0,1,,,,,,,,,,,,,,,,,,
,,,,,,,,,,,,,train3_audtrain2,2023-11-07_11h11.20.273,AudTraining2,2021.2.3,Win32,59.82650314,,,,,,,,,,,,,,RegPatterns/02d-ms_3_1_4_3_1_unit250.mp3,2,1,0,1,0,1,,,,,,,,,,,,,,,,,,
,,,,,,,,,,,,,train3_audtrain2,2023-11-07_11h11.20.273,AudTraining2,2021.2.3,Win32,59.82650314,,,,,,,,,,,,,,RegPatterns/02-ms_3_1_4_1_3_unit250.mp3,0,2,0,2,0,1,,,,,,,,,,,,,,,,,,
,,,,,,,,,,,,,train3_audtrain2,2023-11-07_11h11.20.273,AudTraining2,2021.2.3,Win32,59.82650314,,,,,,,,,,,,,,,,,,,,,1,0.3599,2,2,26,0,1,RegPatterns/02-ms_3_1_4_1_3_unit250.mp3,RegPatterns/02d-ms_3_1_4_3_1_unit250.mp3,,,,,,,,,
,,,,,,,,,,,,,train3_audtrain2,2023-11-07_11h11.20.273,AudTraining2,2021.2.3,Win32,59.82650314,,,,,,,,,,,,,,RegPatterns/26-ms_1_1_2_2_1_1_4_unit250.mp3,0,0,0,0,0,1,,,,,,,,,,,,,,,,,,
,,,,,,,,,,,,,train3_audtrain2,2023-11-07_11h11.20.273,AudTraining2,2021.2.3,Win32,59.82650314,,,,,,,,,,,,,,RegPatterns/26d-ms_1_1_2_1_1_2_4_unit250.mp3,2,1,0,1,0,1,,,,,,,,,,,,,,,,,,
,,,,,,,,,,,,,train3_audtrain2,2023-11-07_11h11.20.273,AudTraining2,2021.2.3,Win32,59.82650314,,,,,,,,,,,,,,RegPatterns/26-ms_1_1_2_2_1_1_4_unit250.mp3,0,2,0,2,0,1,,,,,,,,,,,,,,,,,,
,,,,,,,,,,,,,train3_audtrain2,2023-11-07_11h11.20.273,AudTraining2,2021.2.3,Win32,59.82650314,,,,,,,,,,,,,,,,,,,,,2,2.9268,2,3,27,8,1,RegPatterns/26-ms_1_1_2_2_1_1_4_unit250.mp3,RegPatterns/26d-ms_1_1_2_1_1_2_4_unit250.mp3,,,,,,,,,
,,,,,,,,,,,,,train3_audtrain2,2023-11-07_11h11.20.273,AudTraining2,2021.2.3,Win32,59.82650314,,,,,,,,,,,,,,RegPatterns/19-ms_1_1_2_3_1_2_2_unit230.mp3,0,0,0,0,0,1,,,,,,,,,,,,,,,,,,
,,,,,,,,,,,,,train3_audtrain2,2023-11-07_11h11.20.273,AudTraining2,2021.2.3,Win32,59.82650314,,,,,,,,,,,,,,RegPatterns/19-ms_1_1_2_3_1_2_2_unit230.mp3,0,1,0,1,0,1,,,,,,,,,,,,,,,,,,
,,,,,,,,,,,,,train3_audtrain2,2023-11-07_11h11.20.273,AudTraining2,2021.2.3,Win32,59.82650314,,,,,,,,,,,,,,RegPatterns/19d-ms_1_1_2_1_3_2_2_unit230.mp3,3,2,0,2,0,1,,,,,,,,,,,,,,,,,,
,,,,,,,,,,,,,train3_audtrain2,2023-11-07_11h11.20.273,AudTraining2,2021.2.3,Win32,59.82650314,,,,,,,,,,,,,,,,,,,,,3,0.3332,2,4,28,7,1,RegPatterns/19-ms_1_1_2_3_1_2_2_unit230.mp3,RegPatterns/19d-ms_1_1_2_1_3_2_2_unit230.mp3,,,,,,,,,
,,,,,,,,,,,,,train3_audtrain2,2023-11-07_11h11.20.273,AudTraining2,2021.2.3,Win32,59.82650314,,,,,,,,,,,,,,RegPatterns/20-ms_2_1_1_2_2_3_1_unit230.mp3,0,0,0,0,0,1,,,,,,,,,,,,,,,,,,
,,,,,,,,,,,,,train3_audtrain2,2023-11-07_11h11.20.273,AudTraining2,2021.2.3,Win32,59.82650314,,,,,,,,,,,,,,RegPatterns/20-ms_2_1_1_2_2_3_1_unit230.mp3,0,1,0,1,0,1,,,,,,,,,,,,,,,,,,
,,,,,,,,,,,,,train3_audtrain2,2023-11-07_11h11.20.273,AudTraining2,2021.2.3,Win32,59.82650314,,,,,,,,,,,,,,RegPatterns/20d-ms_2_1_1_2_2_1_3_unit230.mp3,3,2,0,2,0,1,,,,,,,,,,,,,,,,,,
,,,,,,,,,,,,,train3_audtrain2,2023-11-07_11h11.20.273,AudTraining2,2021.2.3,Win32,59.82650314,,,,,,,,,,,,,,,,,,,,,1,0.3499,2,5,29,11,1,RegPatterns/20-ms_2_1_1_2_2_3_1_unit230.mp3,RegPatterns/20d-ms_2_1_1_2_2_1_3_unit230.mp3,,,,,,,,,
,,,,,,,,,,,,,train3_audtrain2,2023-11-07_11h11.20.273,AudTraining2,2021.2.3,Win32,59.82650314,,,,,,,,,,,,,,RegPatterns/09d-ms_2_1_1_3_1_4_unit270.mp3,1,0,0,0,0,1,,,,,,,,,,,,,,,,,,
,,,,,,,,,,,,,train3_audtrain2,2023-11-07_11h11.20.273,AudTraining2,2021.2.3,Win32,59.82650314,,,,,,,,,,,,,,RegPatterns/09-ms_2_1_1_1_3_4_unit270.mp3,0,1,0,1,0,1,,,,,,,,,,,,,,,,,,
,,,,,,,,,,,,,train3_audtrain2,2023-11-07_11h11.20.273,AudTraining2,2021.2.3,Win32,59.82650314,,,,,,,,,,,,,,RegPatterns/09-ms_2_1_1_1_3_4_unit270.mp3,0,2,0,2,0,1,,,,,,,,,,,,,,,,,,
,,,,,,,,,,,,,train3_audtrain2,2023-11-07_11h11.20.273,AudTraining2,2021.2.3,Win32,59.82650314,,,,,,,,,,,,,,,,,,,,,2,0.2953,2,6,30,2,1,RegPatterns/09-ms_2_1_1_1_3_4_unit270.mp3,RegPatterns/09d-ms_2_1_1_3_1_4_unit270.mp3,,,,,,,,,
,,,,,,,,,,,,,train3_audtrain2,2023-11-07_11h11.20.273,AudTraining2,2021.2.3,Win32,59.82650314,,,,,,,,,,,,,,RegPatterns/16-ms_3_1_2_2_1_3_unit230.mp3,0,0,0,0,0,1,,,,,,,,,,,,,,,,,,
,,,,,,,,,,,,,train3_audtrain2,2023-11-07_11h11.20.273,AudTraining2,2021.2.3,Win32,59.82650314,,,,,,,,,,,,,,RegPatterns/16d-ms_3_1_2_2_3_1_unit230.mp3,2,1,0,1,0,1,,,,,,,,,,,,,,,,,,
,,,,,,,,,,,,,train3_audtrain2,2023-11-07_11h11.20.273,AudTraining2,2021.2.3,Win32,59.82650314,,,,,,,,,,,,,,RegPatterns/16-ms_3_1_2_2_1_3_unit230.mp3,0,2,0,2,0,1,,,,,,,,,,,,,,,,,,
,,,,,,,,,,,,,train3_audtrain2,2023-11-07_11h11.20.273,AudTraining2,2021.2.3,Win32,59.82650314,,,,,,,,,,,,,,,,,,,,,3,1.4451,2,7,31,5,1,RegPatterns/16-ms_3_1_2_2_1_3_unit230.mp3,RegPatterns/16d-ms_3_1_2_2_3_1_unit230.mp3,,,,,,,,,
,,,,,,,,,,,,,train3_audtrain2,2023-11-07_11h11.20.273,AudTraining2,2021.2.3,Win32,59.82650314,,,,,,,,,,,,,,RegPatterns/30d-ms_1_3_2_2_1_1_2_unit230.mp3,1,0,0,0,0,1,,,,,,,,,,,,,,,,,,
,,,,,,,,,,,,,train3_audtrain2,2023-11-07_11h11.20.273,AudTraining2,2021.2.3,Win32,59.82650314,,,,,,,,,,,,,,RegPatterns/30-ms_3_1_2_2_1_1_2_unit230.mp3,0,1,0,1,0,1,,,,,,,,,,,,,,,,,,
,,,,,,,,,,,,,train3_audtrain2,2023-11-07_11h11.20.273,AudTraining2,2021.2.3,Win32,59.82650314,,,,,,,,,,,,,,RegPatterns/30-ms_3_1_2_2_1_1_2_unit230.mp3,0,2,0,2,0,1,,,,,,,,,,,,,,,,,,
,,,,,,,,,,,,,train3_audtrain2,2023-11-07_11h11.20.273,AudTraining2,2021.2.3,Win32,59.82650314,,,,,,,,,,,,,,,,,,,,,2,0.7092,2,8,32,10,1,RegPatterns/30-ms_3_1_2_2_1_1_2_unit230.mp3,RegPatterns/30d-ms_1_3_2_2_1_1_2_unit230.mp3,,,,,,,,,
,,,,,,,,,,,,,train3_audtrain2,2023-11-07_11h11.20.273,AudTraining2,2021.2.3,Win32,59.82650314,,,,,,,,,,,,,,RegPatterns/18-ms_4_2_2_1_1_2_unit270.mp3,0,0,0,0,0,1,,,,,,,,,,,,,,,,,,
,,,,,,,,,,,,,train3_audtrain2,2023-11-07_11h11.20.273,AudTraining2,2021.2.3,Win32,59.82650314,,,,,,,,,,,,,,RegPatterns/18d-ms_4_2_2_2_1_1_unit270.mp3,2,1,0,1,0,1,,,,,,,,,,,,,,,,,,
,,,,,,,,,,,,,train3_audtrain2,2023-11-07_11h11.20.273,AudTraining2,2021.2.3,Win32,59.82650314,,,,,,,,,,,,,,RegPatterns/18-ms_4_2_2_1_1_2_unit270.mp3,0,2,0,2,0,1,,,,,,,,,,,,,,,,,,
,,,,,,,,,,,,,train3_audtrain2,2023-11-07_11h11.20.273,AudTraining2,2021.2.3,Win32,59.82650314,,,,,,,,,,,,,,,,,,,,,1,1.4124,2,9,33,6,1,RegPatterns/18-ms_4_2_2_1_1_2_unit270.mp3,RegPatterns/18d-ms_4_2_2_2_1_1_unit270.mp3,,,,,,,,,
,,,,,,,,,,,,,train3_audtrain2,2023-11-07_11h11.20.273,AudTraining2,2021.2.3,Win32,59.82650314,,,,,,,,,,,,,,RegPatterns/14d-ms_2_1_1_4_3_1_unit250.mp3,1,0,0,0,0,1,,,,,,,,,,,,,,,,,,
,,,,,,,,,,,,,train3_audtrain2,2023-11-07_11h11.20.273,AudTraining2,2021.2.3,Win32,59.82650314,,,,,,,,,,,,,,RegPatterns/14-ms_2_1_1_4_1_3_unit250.mp3,0,1,0,1,0,1,,,,,,,,,,,,,,,,,,
,,,,,,,,,,,,,train3_audtrain2,2023-11-07_11h11.20.273,AudTraining2,2021.2.3,Win32,59.82650314,,,,,,,,,,,,,,RegPatterns/14-ms_2_1_1_4_1_3_unit250.mp3,0,2,0,2,0,1,,,,,,,,,,,,,,,,,,
,,,,,,,,,,,,,train3_audtrain2,2023-11-07_11h11.20.273,AudTraining2,2021.2.3,Win32,59.82650314,,,,,,,,,,,,,,,,,,,,,1,2.0349,2,10,34,4,1,RegPatterns/14-ms_2_1_1_4_1_3_unit250.mp3,RegPatterns/14d-ms_2_1_1_4_3_1_unit250.mp3,,,,,,,,,
,,,,,,,,,,,,,train3_audtrain2,2023-11-07_11h11.20.273,AudTraining2,2021.2.3,Win32,59.82650314,,,,,,,,,,,,,,RegPatterns/29-ms_3_1_2_1_1_1_3_unit250.mp3,0,0,0,0,0,1,,,,,,,,,,,,,,,,,,
,,,,,,,,,,,,,train3_audtrain2,2023-11-07_11h11.20.273,AudTraining2,2021.2.3,Win32,59.82650314,,,,,,,,,,,,,,RegPatterns/29d-ms_3_1_2_1_1_3_1_unit250.mp3,2,1,0,1,0,1,,,,,,,,,,,,,,,,,,
,,,,,,,,,,,,,train3_audtrain2,2023-11-07_11h11.20.273,AudTraining2,2021.2.3,Win32,59.82650314,,,,,,,,,,,,,,RegPatterns/29-ms_3_1_2_1_1_1_3_unit250.mp3,0,2,0,2,0,1,,,,,,,,,,,,,,,,,,
,,,,,,,,,,,,,train3_audtrain2,2023-11-07_11h11.20.273,AudTraining2,2021.2.3,Win32,59.82650314,,,,,,,,,,,,,,,,,,,,,2,0.4786,2,11,35,9,1,RegPatterns/29-ms_3_1_2_1_1_1_3_unit250.mp3,RegPatterns/29d-ms_3_1_2_1_1_3_1_unit250.mp3,,,,,,,,,
,,,,,,,,,,,,,train3_audtrain2,2023-11-07_11h11.20.273,AudTraining2,2021.2.3,Win32,59.82650314,,,,,,,,,,,,,,,,,,,,,,,,,,,,,,,,,,,,,space,2.7078
