key_resp.keys,key_resp.rt,key_resp_2.keys,key_resp_2.rt,key_resp_3.keys,key_resp_3.rt,trials.thisRepN,trials.thisTrialN,trials.thisN,trials.thisIndex,trials.ran,volstandard,voldeviant,participant,date,expName,psychopyVersion,OS,frameRate,key_resp_4.keys,key_resp_4.rt,key_resp_5.keys,key_resp_5.rt,trials_2.thisRepN,trials_2.thisTrialN,trials_2.thisN,trials_2.thisIndex,trials_2.ran,RegStandardPitch,RegDeviantPitch,key_resp_6.keys,key_resp_6.rt,RegAudSequence,diff-reg,trials_3.thisRepN,trials_3.thisTrialN,trials_3.thisN,trials_3.thisIndex,trials_3.ran,key_resp_7.keys,key_resp_7.rt,trials_5.thisRepN,trials_5.thisTrialN,trials_5.thisN,trials_5.thisIndex,trials_5.ran,standard,devient,key_resp_8.keys,key_resp_8.rt,trials_4.thisRepN,trials_4.thisTrialN,trials_4.thisN,trials_4.thisIndex,trials_4.ran,key_resp_9.keys,key_resp_9.rt
space,1.4158,space,0.8707,space,0.7401,0,0,0,0,1,RegPatterns/01-ms_2_2_4_1_3_unit230.mp3,RegPatterns/01d-ms_2_2_4_3_1_unit230.mp3,train37_audtrain2,2023-11-25_20h39.16.746,AudTraining2,2021.2.3,MacIntel,30.00120005,,,,,,,,,,,,,,,,,,,,,,,,,,,,,,,,,,,,,,
,,,,,,,,,,,,,train37_audtrain2,2023-11-25_20h39.16.746,AudTraining2,2021.2.3,MacIntel,30.00120005,space,3.1245,g,0.315,0,0,0,0,1,RegPatterns/Noise.mp3,RegPatterns/Noise.mp3,,,,,,,,,,,,,,,,,,,,,,,,,,,
,,,,,,,,,,,,,train37_audtrain2,2023-11-25_20h39.16.746,AudTraining2,2021.2.3,MacIntel,30.00120005,,,,,,,,,,,,space,2.2263,RegPatterns/29-ms_3_1_2_1_1_1_3_unit250.mp3,0,0,0,0,0,1,,,,,,,,,,,,,,,,,,
,,,,,,,,,,,,,train37_audtrain2,2023-11-25_20h39.16.746,AudTraining2,2021.2.3,MacIntel,30.00120005,,,,,,,,,,,,,,RegPatterns/29-ms_3_1_2_1_1_1_3_unit250.mp3,0,1,0,1,0,1,,,,,,,,,,,,,,,,,,
,,,,,,,,,,,,,train37_audtrain2,2023-11-25_20h39.16.746,AudTraining2,2021.2.3,MacIntel,30.00120005,,,,,,,,,,,,,,RegPatterns/29d-ms_3_1_2_1_1_3_1_unit250.mp3,3,2,0,2,0,1,,,,,,,,,,,,,,,,,,
,,,,,,,,,,,,,train37_audtrain2,2023-11-25_20h39.16.746,AudTraining2,2021.2.3,MacIntel,30.00120005,,,,,,,,,,,,,,,,,,,,,1,0.9838,0,0,0,9,1,RegPatterns/29-ms_3_1_2_1_1_1_3_unit250.mp3,RegPatterns/29d-ms_3_1_2_1_1_3_1_unit250.mp3,,,,,,,,,
,,,,,,,,,,,,,train37_audtrain2,2023-11-25_20h39.16.746,AudTraining2,2021.2.3,MacIntel,30.00120005,,,,,,,,,,,,,,RegPatterns/12d-ms_3_1_3_1_2_2_unit270.mp3,1,0,0,0,0,1,,,,,,,,,,,,,,,,,,
,,,,,,,,,,,,,train37_audtrain2,2023-11-25_20h39.16.746,AudTraining2,2021.2.3,MacIntel,30.00120005,,,,,,,,,,,,,,RegPatterns/12-ms_3_1_1_3_2_2_unit270.mp3,0,1,0,1,0,1,,,,,,,,,,,,,,,,,,
,,,,,,,,,,,,,train37_audtrain2,2023-11-25_20h39.16.746,AudTraining2,2021.2.3,MacIntel,30.00120005,,,,,,,,,,,,,,RegPatterns/12-ms_3_1_1_3_2_2_unit270.mp3,0,2,0,2,0,1,,,,,,,,,,,,,,,,,,
,,,,,,,,,,,,,train37_audtrain2,2023-11-25_20h39.16.746,AudTraining2,2021.2.3,MacIntel,30.00120005,,,,,,,,,,,,,,,,,,,,,3,118.3564,0,1,1,3,1,RegPatterns/12-ms_3_1_1_3_2_2_unit270.mp3,RegPatterns/12d-ms_3_1_3_1_2_2_unit270.mp3,,,,,,,,,
,,,,,,,,,,,,,train37_audtrain2,2023-11-25_20h39.16.746,AudTraining2,2021.2.3,MacIntel,30.00120005,,,,,,,,,,,,,,RegPatterns/19-ms_1_1_2_3_1_2_2_unit230.mp3,0,0,0,0,0,1,,,,,,,,,,,,,,,,,,
,,,,,,,,,,,,,train37_audtrain2,2023-11-25_20h39.16.746,AudTraining2,2021.2.3,MacIntel,30.00120005,,,,,,,,,,,,,,RegPatterns/19d-ms_1_1_2_1_3_2_2_unit230.mp3,2,1,0,1,0,1,,,,,,,,,,,,,,,,,,
,,,,,,,,,,,,,train37_audtrain2,2023-11-25_20h39.16.746,AudTraining2,2021.2.3,MacIntel,30.00120005,,,,,,,,,,,,,,RegPatterns/19-ms_1_1_2_3_1_2_2_unit230.mp3,0,2,0,2,0,1,,,,,,,,,,,,,,,,,,
,,,,,,,,,,,,,train37_audtrain2,2023-11-25_20h39.16.746,AudTraining2,2021.2.3,MacIntel,30.00120005,,,,,,,,,,,,,,,,,,,,,2,1.2225,0,2,2,7,1,RegPatterns/19-ms_1_1_2_3_1_2_2_unit230.mp3,RegPatterns/19d-ms_1_1_2_1_3_2_2_unit230.mp3,,,,,,,,,
,,,,,,,,,,,,,train37_audtrain2,2023-11-25_20h39.16.746,AudTraining2,2021.2.3,MacIntel,30.00120005,,,,,,,,,,,,,,RegPatterns/09d-ms_2_1_1_3_1_4_unit270.mp3,1,0,0,0,0,1,,,,,,,,,,,,,,,,,,
,,,,,,,,,,,,,train37_audtrain2,2023-11-25_20h39.16.746,AudTraining2,2021.2.3,MacIntel,30.00120005,,,,,,,,,,,,,,RegPatterns/09-ms_2_1_1_1_3_4_unit270.mp3,0,1,0,1,0,1,,,,,,,,,,,,,,,,,,
,,,,,,,,,,,,,train37_audtrain2,2023-11-25_20h39.16.746,AudTraining2,2021.2.3,MacIntel,30.00120005,,,,,,,,,,,,,,RegPatterns/09-ms_2_1_1_1_3_4_unit270.mp3,0,2,0,2,0,1,,,,,,,,,,,,,,,,,,
,,,,,,,,,,,,,train37_audtrain2,2023-11-25_20h39.16.746,AudTraining2,2021.2.3,MacIntel,30.00120005,,,,,,,,,,,,,,,,,,,,,3,2.4411,0,3,3,2,1,RegPatterns/09-ms_2_1_1_1_3_4_unit270.mp3,RegPatterns/09d-ms_2_1_1_3_1_4_unit270.mp3,,,,,,,,,
,,,,,,,,,,,,,train37_audtrain2,2023-11-25_20h39.16.746,AudTraining2,2021.2.3,MacIntel,30.00120005,,,,,,,,,,,,,,RegPatterns/02-ms_3_1_4_1_3_unit250.mp3,0,0,0,0,0,1,,,,,,,,,,,,,,,,,,
,,,,,,,,,,,,,train37_audtrain2,2023-11-25_20h39.16.746,AudTraining2,2021.2.3,MacIntel,30.00120005,,,,,,,,,,,,,,RegPatterns/02-ms_3_1_4_1_3_unit250.mp3,0,1,0,1,0,1,,,,,,,,,,,,,,,,,,
,,,,,,,,,,,,,train37_audtrain2,2023-11-25_20h39.16.746,AudTraining2,2021.2.3,MacIntel,30.00120005,,,,,,,,,,,,,,RegPatterns/02d-ms_3_1_4_3_1_unit250.mp3,3,2,0,2,0,1,,,,,,,,,,,,,,,,,,
,,,,,,,,,,,,,train37_audtrain2,2023-11-25_20h39.16.746,AudTraining2,2021.2.3,MacIntel,30.00120005,,,,,,,,,,,,,,,,,,,,,2,0.2709,0,4,4,0,1,RegPatterns/02-ms_3_1_4_1_3_unit250.mp3,RegPatterns/02d-ms_3_1_4_3_1_unit250.mp3,,,,,,,,,
,,,,,,,,,,,,,train37_audtrain2,2023-11-25_20h39.16.746,AudTraining2,2021.2.3,MacIntel,30.00120005,,,,,,,,,,,,,,RegPatterns/18-ms_4_2_2_1_1_2_unit270.mp3,0,0,0,0,0,1,,,,,,,,,,,,,,,,,,
,,,,,,,,,,,,,train37_audtrain2,2023-11-25_20h39.16.746,AudTraining2,2021.2.3,MacIntel,30.00120005,,,,,,,,,,,,,,RegPatterns/18-ms_4_2_2_1_1_2_unit270.mp3,0,1,0,1,0,1,,,,,,,,,,,,,,,,,,
,,,,,,,,,,,,,train37_audtrain2,2023-11-25_20h39.16.746,AudTraining2,2021.2.3,MacIntel,30.00120005,,,,,,,,,,,,,,RegPatterns/18d-ms_4_2_2_2_1_1_unit270.mp3,3,2,0,2,0,1,,,,,,,,,,,,,,,,,,
,,,,,,,,,,,,,train37_audtrain2,2023-11-25_20h39.16.746,AudTraining2,2021.2.3,MacIntel,30.00120005,,,,,,,,,,,,,,,,,,,,,2,0.1954,0,5,5,6,1,RegPatterns/18-ms_4_2_2_1_1_2_unit270.mp3,RegPatterns/18d-ms_4_2_2_2_1_1_unit270.mp3,,,,,,,,,
,,,,,,,,,,,,,train37_audtrain2,2023-11-25_20h39.16.746,AudTraining2,2021.2.3,MacIntel,30.00120005,,,,,,,,,,,,,,RegPatterns/14-ms_2_1_1_4_1_3_unit250.mp3,0,0,0,0,0,1,,,,,,,,,,,,,,,,,,
,,,,,,,,,,,,,train37_audtrain2,2023-11-25_20h39.16.746,AudTraining2,2021.2.3,MacIntel,30.00120005,,,,,,,,,,,,,,RegPatterns/14d-ms_2_1_1_4_3_1_unit250.mp3,2,1,0,1,0,1,,,,,,,,,,,,,,,,,,
,,,,,,,,,,,,,train37_audtrain2,2023-11-25_20h39.16.746,AudTraining2,2021.2.3,MacIntel,30.00120005,,,,,,,,,,,,,,RegPatterns/14-ms_2_1_1_4_1_3_unit250.mp3,0,2,0,2,0,1,,,,,,,,,,,,,,,,,,
,,,,,,,,,,,,,train37_audtrain2,2023-11-25_20h39.16.746,AudTraining2,2021.2.3,MacIntel,30.00120005,,,,,,,,,,,,,,,,,,,,,1,1.7542,0,6,6,4,1,RegPatterns/14-ms_2_1_1_4_1_3_unit250.mp3,RegPatterns/14d-ms_2_1_1_4_3_1_unit250.mp3,,,,,,,,,
,,,,,,,,,,,,,train37_audtrain2,2023-11-25_20h39.16.746,AudTraining2,2021.2.3,MacIntel,30.00120005,,,,,,,,,,,,,,RegPatterns/30-ms_3_1_2_2_1_1_2_unit230.mp3,0,0,0,0,0,1,,,,,,,,,,,,,,,,,,
,,,,,,,,,,,,,train37_audtrain2,2023-11-25_20h39.16.746,AudTraining2,2021.2.3,MacIntel,30.00120005,,,,,,,,,,,,,,RegPatterns/30d-ms_1_3_2_2_1_1_2_unit230.mp3,2,1,0,1,0,1,,,,,,,,,,,,,,,,,,
,,,,,,,,,,,,,train37_audtrain2,2023-11-25_20h39.16.746,AudTraining2,2021.2.3,MacIntel,30.00120005,,,,,,,,,,,,,,RegPatterns/30-ms_3_1_2_2_1_1_2_unit230.mp3,0,2,0,2,0,1,,,,,,,,,,,,,,,,,,
,,,,,,,,,,,,,train37_audtrain2,2023-11-25_20h39.16.746,AudTraining2,2021.2.3,MacIntel,30.00120005,,,,,,,,,,,,,,,,,,,,,3,2.03,0,7,7,10,1,RegPatterns/30-ms_3_1_2_2_1_1_2_unit230.mp3,RegPatterns/30d-ms_1_3_2_2_1_1_2_unit230.mp3,,,,,,,,,
,,,,,,,,,,,,,train37_audtrain2,2023-11-25_20h39.16.746,AudTraining2,2021.2.3,MacIntel,30.00120005,,,,,,,,,,,,,,RegPatterns/20-ms_2_1_1_2_2_3_1_unit230.mp3,0,0,0,0,0,1,,,,,,,,,,,,,,,,,,
,,,,,,,,,,,,,train37_audtrain2,2023-11-25_20h39.16.746,AudTraining2,2021.2.3,MacIntel,30.00120005,,,,,,,,,,,,,,RegPatterns/20-ms_2_1_1_2_2_3_1_unit230.mp3,0,1,0,1,0,1,,,,,,,,,,,,,,,,,,
,,,,,,,,,,,,,train37_audtrain2,2023-11-25_20h39.16.746,AudTraining2,2021.2.3,MacIntel,30.00120005,,,,,,,,,,,,,,RegPatterns/20d-ms_2_1_1_2_2_1_3_unit230.mp3,3,2,0,2,0,1,,,,,,,,,,,,,,,,,,
,,,,,,,,,,,,,train37_audtrain2,2023-11-25_20h39.16.746,AudTraining2,2021.2.3,MacIntel,30.00120005,,,,,,,,,,,,,,,,,,,,,1,1.2062,0,8,8,11,1,RegPatterns/20-ms_2_1_1_2_2_3_1_unit230.mp3,RegPatterns/20d-ms_2_1_1_2_2_1_3_unit230.mp3,,,,,,,,,
,,,,,,,,,,,,,train37_audtrain2,2023-11-25_20h39.16.746,AudTraining2,2021.2.3,MacIntel,30.00120005,,,,,,,,,,,,,,RegPatterns/16-ms_3_1_2_2_1_3_unit230.mp3,0,0,0,0,0,1,,,,,,,,,,,,,,,,,,
,,,,,,,,,,,,,train37_audtrain2,2023-11-25_20h39.16.746,AudTraining2,2021.2.3,MacIntel,30.00120005,,,,,,,,,,,,,,RegPatterns/16d-ms_3_1_2_2_3_1_unit230.mp3,2,1,0,1,0,1,,,,,,,,,,,,,,,,,,
,,,,,,,,,,,,,train37_audtrain2,2023-11-25_20h39.16.746,AudTraining2,2021.2.3,MacIntel,30.00120005,,,,,,,,,,,,,,RegPatterns/16-ms_3_1_2_2_1_3_unit230.mp3,0,2,0,2,0,1,,,,,,,,,,,,,,,,,,
,,,,,,,,,,,,,train37_audtrain2,2023-11-25_20h39.16.746,AudTraining2,2021.2.3,MacIntel,30.00120005,,,,,,,,,,,,,,,,,,,,,1,0.438,0,9,9,5,1,RegPatterns/16-ms_3_1_2_2_1_3_unit230.mp3,RegPatterns/16d-ms_3_1_2_2_3_1_unit230.mp3,,,,,,,,,
,,,,,,,,,,,,,train37_audtrain2,2023-11-25_20h39.16.746,AudTraining2,2021.2.3,MacIntel,30.00120005,,,,,,,,,,,,,,RegPatterns/26-ms_1_1_2_2_1_1_4_unit250.mp3,0,0,0,0,0,1,,,,,,,,,,,,,,,,,,
,,,,,,,,,,,,,train37_audtrain2,2023-11-25_20h39.16.746,AudTraining2,2021.2.3,MacIntel,30.00120005,,,,,,,,,,,,,,RegPatterns/26-ms_1_1_2_2_1_1_4_unit250.mp3,0,1,0,1,0,1,,,,,,,,,,,,,,,,,,
,,,,,,,,,,,,,train37_audtrain2,2023-11-25_20h39.16.746,AudTraining2,2021.2.3,MacIntel,30.00120005,,,,,,,,,,,,,,RegPatterns/26d-ms_1_1_2_1_1_2_4_unit250.mp3,3,2,0,2,0,1,,,,,,,,,,,,,,,,,,
,,,,,,,,,,,,,train37_audtrain2,2023-11-25_20h39.16.746,AudTraining2,2021.2.3,MacIntel,30.00120005,,,,,,,,,,,,,,,,,,,,,2,3.3524,0,10,10,8,1,RegPatterns/26-ms_1_1_2_2_1_1_4_unit250.mp3,RegPatterns/26d-ms_1_1_2_1_1_2_4_unit250.mp3,,,,,,,,,
,,,,,,,,,,,,,train37_audtrain2,2023-11-25_20h39.16.746,AudTraining2,2021.2.3,MacIntel,30.00120005,,,,,,,,,,,,,,RegPatterns/03d-ms_1_3_4_2_2_unit270.mp3,1,0,0,0,0,1,,,,,,,,,,,,,,,,,,
,,,,,,,,,,,,,train37_audtrain2,2023-11-25_20h39.16.746,AudTraining2,2021.2.3,MacIntel,30.00120005,,,,,,,,,,,,,,RegPatterns/03-ms_3_1_4_2_2_unit270.mp3,0,1,0,1,0,1,,,,,,,,,,,,,,,,,,
,,,,,,,,,,,,,train37_audtrain2,2023-11-25_20h39.16.746,AudTraining2,2021.2.3,MacIntel,30.00120005,,,,,,,,,,,,,,RegPatterns/03-ms_3_1_4_2_2_unit270.mp3,0,2,0,2,0,1,,,,,,,,,,,,,,,,,,
,,,,,,,,,,,,,train37_audtrain2,2023-11-25_20h39.16.746,AudTraining2,2021.2.3,MacIntel,30.00120005,,,,,,,,,,,,,,,,,,,,,3,0.8689,0,11,11,1,1,RegPatterns/03-ms_3_1_4_2_2_unit270.mp3,RegPatterns/03d-ms_1_3_4_2_2_unit270.mp3,,,,,,,,,
,,,,,,,,,,,,,train37_audtrain2,2023-11-25_20h39.16.746,AudTraining2,2021.2.3,MacIntel,30.00120005,,,,,,,,,,,,,,RegPatterns/29-ms_3_1_2_1_1_1_3_unit250.mp3,0,0,0,0,0,1,,,,,,,,,,,,,,,,,,
,,,,,,,,,,,,,train37_audtrain2,2023-11-25_20h39.16.746,AudTraining2,2021.2.3,MacIntel,30.00120005,,,,,,,,,,,,,,RegPatterns/29d-ms_3_1_2_1_1_3_1_unit250.mp3,2,1,0,1,0,1,,,,,,,,,,,,,,,,,,
,,,,,,,,,,,,,train37_audtrain2,2023-11-25_20h39.16.746,AudTraining2,2021.2.3,MacIntel,30.00120005,,,,,,,,,,,,,,RegPatterns/29-ms_3_1_2_1_1_1_3_unit250.mp3,0,2,0,2,0,1,,,,,,,,,,,,,,,,,,
,,,,,,,,,,,,,train37_audtrain2,2023-11-25_20h39.16.746,AudTraining2,2021.2.3,MacIntel,30.00120005,,,,,,,,,,,,,,,,,,,,,2,0.4008,1,0,12,9,1,RegPatterns/29-ms_3_1_2_1_1_1_3_unit250.mp3,RegPatterns/29d-ms_3_1_2_1_1_3_1_unit250.mp3,,,,,,,,,
,,,,,,,,,,,,,train37_audtrain2,2023-11-25_20h39.16.746,AudTraining2,2021.2.3,MacIntel,30.00120005,,,,,,,,,,,,,,RegPatterns/02d-ms_3_1_4_3_1_unit250.mp3,1,0,0,0,0,1,,,,,,,,,,,,,,,,,,
,,,,,,,,,,,,,train37_audtrain2,2023-11-25_20h39.16.746,AudTraining2,2021.2.3,MacIntel,30.00120005,,,,,,,,,,,,,,RegPatterns/02-ms_3_1_4_1_3_unit250.mp3,0,1,0,1,0,1,,,,,,,,,,,,,,,,,,
,,,,,,,,,,,,,train37_audtrain2,2023-11-25_20h39.16.746,AudTraining2,2021.2.3,MacIntel,30.00120005,,,,,,,,,,,,,,RegPatterns/02-ms_3_1_4_1_3_unit250.mp3,0,2,0,2,0,1,,,,,,,,,,,,,,,,,,
,,,,,,,,,,,,,train37_audtrain2,2023-11-25_20h39.16.746,AudTraining2,2021.2.3,MacIntel,30.00120005,,,,,,,,,,RegPatterns/Noise.mp3,RegPatterns/Noise.mp3,,,,,,,,,,2,2.2175,,,,,,,,g,0.802,0,0,0,0,1,,
,,,,,,,,,,,,,train37_audtrain2,2023-11-25_20h39.16.746,AudTraining2,2021.2.3,MacIntel,30.00120005,,,,,,,,,,,,,,,,,,,,,,,1,1,13,0,1,RegPatterns/02-ms_3_1_4_1_3_unit250.mp3,RegPatterns/02d-ms_3_1_4_3_1_unit250.mp3,,,,,,,,,
,,,,,,,,,,,,,train37_audtrain2,2023-11-25_20h39.16.746,AudTraining2,2021.2.3,MacIntel,30.00120005,,,,,,,,,,,,,,RegPatterns/19d-ms_1_1_2_1_3_2_2_unit230.mp3,1,0,0,0,0,1,,,,,,,,,,,,,,,,,,
,,,,,,,,,,,,,train37_audtrain2,2023-11-25_20h39.16.746,AudTraining2,2021.2.3,MacIntel,30.00120005,,,,,,,,,,,,,,RegPatterns/19-ms_1_1_2_3_1_2_2_unit230.mp3,0,1,0,1,0,1,,,,,,,,,,,,,,,,,,
,,,,,,,,,,,,,train37_audtrain2,2023-11-25_20h39.16.746,AudTraining2,2021.2.3,MacIntel,30.00120005,,,,,,,,,,,,,,RegPatterns/19-ms_1_1_2_3_1_2_2_unit230.mp3,0,2,0,2,0,1,,,,,,,,,,,,,,,,,,
,,,,,,,,,,,,,train37_audtrain2,2023-11-25_20h39.16.746,AudTraining2,2021.2.3,MacIntel,30.00120005,,,,,,,,,,,,,,,,,,,,,3,2.7415,1,2,14,7,1,RegPatterns/19-ms_1_1_2_3_1_2_2_unit230.mp3,RegPatterns/19d-ms_1_1_2_1_3_2_2_unit230.mp3,,,,,,,,,
,,,,,,,,,,,,,train37_audtrain2,2023-11-25_20h39.16.746,AudTraining2,2021.2.3,MacIntel,30.00120005,,,,,,,,,,,,,,RegPatterns/12-ms_3_1_1_3_2_2_unit270.mp3,0,0,0,0,0,1,,,,,,,,,,,,,,,,,,
,,,,,,,,,,,,,train37_audtrain2,2023-11-25_20h39.16.746,AudTraining2,2021.2.3,MacIntel,30.00120005,,,,,,,,,,,,,,RegPatterns/12d-ms_3_1_3_1_2_2_unit270.mp3,2,1,0,1,0,1,,,,,,,,,,,,,,,,,,
,,,,,,,,,,,,,train37_audtrain2,2023-11-25_20h39.16.746,AudTraining2,2021.2.3,MacIntel,30.00120005,,,,,,,,,,,,,,RegPatterns/12-ms_3_1_1_3_2_2_unit270.mp3,0,2,0,2,0,1,,,,,,,,,,,,,,,,,,
,,,,,,,,,,,,,train37_audtrain2,2023-11-25_20h39.16.746,AudTraining2,2021.2.3,MacIntel,30.00120005,,,,,,,,,,,,,,,,,,,,,1,1.8087,1,3,15,3,1,RegPatterns/12-ms_3_1_1_3_2_2_unit270.mp3,RegPatterns/12d-ms_3_1_3_1_2_2_unit270.mp3,,,,,,,,,
,,,,,,,,,,,,,train37_audtrain2,2023-11-25_20h39.16.746,AudTraining2,2021.2.3,MacIntel,30.00120005,,,,,,,,,,,,,,RegPatterns/18d-ms_4_2_2_2_1_1_unit270.mp3,1,0,0,0,0,1,,,,,,,,,,,,,,,,,,
,,,,,,,,,,,,,train37_audtrain2,2023-11-25_20h39.16.746,AudTraining2,2021.2.3,MacIntel,30.00120005,,,,,,,,,,,,,,RegPatterns/18-ms_4_2_2_1_1_2_unit270.mp3,0,1,0,1,0,1,,,,,,,,,,,,,,,,,,
,,,,,,,,,,,,,train37_audtrain2,2023-11-25_20h39.16.746,AudTraining2,2021.2.3,MacIntel,30.00120005,,,,,,,,,,,,,,RegPatterns/18-ms_4_2_2_1_1_2_unit270.mp3,0,2,0,2,0,1,,,,,,,,,,,,,,,,,,
,,,,,,,,,,,,,train37_audtrain2,2023-11-25_20h39.16.746,AudTraining2,2021.2.3,MacIntel,30.00120005,,,,,,,,,,,,,,,,,,,,,1,0.3548,1,4,16,6,1,RegPatterns/18-ms_4_2_2_1_1_2_unit270.mp3,RegPatterns/18d-ms_4_2_2_2_1_1_unit270.mp3,,,,,,,,,
,,,,,,,,,,,,,train37_audtrain2,2023-11-25_20h39.16.746,AudTraining2,2021.2.3,MacIntel,30.00120005,,,,,,,,,,,,,,RegPatterns/16d-ms_3_1_2_2_3_1_unit230.mp3,1,0,0,0,0,1,,,,,,,,,,,,,,,,,,
,,,,,,,,,,,,,train37_audtrain2,2023-11-25_20h39.16.746,AudTraining2,2021.2.3,MacIntel,30.00120005,,,,,,,,,,,,,,RegPatterns/16-ms_3_1_2_2_1_3_unit230.mp3,0,1,0,1,0,1,,,,,,,,,,,,,,,,,,
,,,,,,,,,,,,,train37_audtrain2,2023-11-25_20h39.16.746,AudTraining2,2021.2.3,MacIntel,30.00120005,,,,,,,,,,,,,,RegPatterns/16-ms_3_1_2_2_1_3_unit230.mp3,0,2,0,2,0,1,,,,,,,,,,,,,,,,,,
,,,,,,,,,,,,,train37_audtrain2,2023-11-25_20h39.16.746,AudTraining2,2021.2.3,MacIntel,30.00120005,,,,,,,,,,,,,,,,,,,,,2,1.0191,1,5,17,5,1,RegPatterns/16-ms_3_1_2_2_1_3_unit230.mp3,RegPatterns/16d-ms_3_1_2_2_3_1_unit230.mp3,,,,,,,,,
,,,,,,,,,,,,,train37_audtrain2,2023-11-25_20h39.16.746,AudTraining2,2021.2.3,MacIntel,30.00120005,,,,,,,,,,,,,,RegPatterns/03-ms_3_1_4_2_2_unit270.mp3,0,0,0,0,0,1,,,,,,,,,,,,,,,,,,
,,,,,,,,,,,,,train37_audtrain2,2023-11-25_20h39.16.746,AudTraining2,2021.2.3,MacIntel,30.00120005,,,,,,,,,,,,,,RegPatterns/03-ms_3_1_4_2_2_unit270.mp3,0,1,0,1,0,1,,,,,,,,,,,,,,,,,,
,,,,,,,,,,,,,train37_audtrain2,2023-11-25_20h39.16.746,AudTraining2,2021.2.3,MacIntel,30.00120005,,,,,,,,,,,,,,RegPatterns/03d-ms_1_3_4_2_2_unit270.mp3,3,2,0,2,0,1,,,,,,,,,,,,,,,,,,
,,,,,,,,,,,,,train37_audtrain2,2023-11-25_20h39.16.746,AudTraining2,2021.2.3,MacIntel,30.00120005,,,,,,,,,,,,,,,,,,,,,2,1.7209,1,6,18,1,1,RegPatterns/03-ms_3_1_4_2_2_unit270.mp3,RegPatterns/03d-ms_1_3_4_2_2_unit270.mp3,,,,,,,,,
,,,,,,,,,,,,,train37_audtrain2,2023-11-25_20h39.16.746,AudTraining2,2021.2.3,MacIntel,30.00120005,,,,,,,,,,,,,,RegPatterns/30d-ms_1_3_2_2_1_1_2_unit230.mp3,1,0,0,0,0,1,,,,,,,,,,,,,,,,,,
,,,,,,,,,,,,,train37_audtrain2,2023-11-25_20h39.16.746,AudTraining2,2021.2.3,MacIntel,30.00120005,,,,,,,,,,,,,,RegPatterns/30-ms_3_1_2_2_1_1_2_unit230.mp3,0,1,0,1,0,1,,,,,,,,,,,,,,,,,,
,,,,,,,,,,,,,train37_audtrain2,2023-11-25_20h39.16.746,AudTraining2,2021.2.3,MacIntel,30.00120005,,,,,,,,,,,,,,RegPatterns/30-ms_3_1_2_2_1_1_2_unit230.mp3,0,2,0,2,0,1,,,,,,,,,,,,,,,,,,
,,,,,,,,,,,,,train37_audtrain2,2023-11-25_20h39.16.746,AudTraining2,2021.2.3,MacIntel,30.00120005,,,,,,,,,,,,,,,,,,,,,1,2.1199,1,7,19,10,1,RegPatterns/30-ms_3_1_2_2_1_1_2_unit230.mp3,RegPatterns/30d-ms_1_3_2_2_1_1_2_unit230.mp3,,,,,,,,,
,,,,,,,,,,,,,train37_audtrain2,2023-11-25_20h39.16.746,AudTraining2,2021.2.3,MacIntel,30.00120005,,,,,,,,,,,,,,RegPatterns/26d-ms_1_1_2_1_1_2_4_unit250.mp3,1,0,0,0,0,1,,,,,,,,,,,,,,,,,,
,,,,,,,,,,,,,train37_audtrain2,2023-11-25_20h39.16.746,AudTraining2,2021.2.3,MacIntel,30.00120005,,,,,,,,,,,,,,RegPatterns/26-ms_1_1_2_2_1_1_4_unit250.mp3,0,1,0,1,0,1,,,,,,,,,,,,,,,,,,
,,,,,,,,,,,,,train37_audtrain2,2023-11-25_20h39.16.746,AudTraining2,2021.2.3,MacIntel,30.00120005,,,,,,,,,,,,,,RegPatterns/26-ms_1_1_2_2_1_1_4_unit250.mp3,0,2,0,2,0,1,,,,,,,,,,,,,,,,,,
,,,,,,,,,,,,,train37_audtrain2,2023-11-25_20h39.16.746,AudTraining2,2021.2.3,MacIntel,30.00120005,,,,,,,,,,,,,,,,,,,,,1,0.3282,1,8,20,8,1,RegPatterns/26-ms_1_1_2_2_1_1_4_unit250.mp3,RegPatterns/26d-ms_1_1_2_1_1_2_4_unit250.mp3,,,,,,,,,
,,,,,,,,,,,,,train37_audtrain2,2023-11-25_20h39.16.746,AudTraining2,2021.2.3,MacIntel,30.00120005,,,,,,,,,,,,,,RegPatterns/20d-ms_2_1_1_2_2_1_3_unit230.mp3,1,0,0,0,0,1,,,,,,,,,,,,,,,,,,
,,,,,,,,,,,,,train37_audtrain2,2023-11-25_20h39.16.746,AudTraining2,2021.2.3,MacIntel,30.00120005,,,,,,,,,,,,,,RegPatterns/20-ms_2_1_1_2_2_3_1_unit230.mp3,0,1,0,1,0,1,,,,,,,,,,,,,,,,,,
,,,,,,,,,,,,,train37_audtrain2,2023-11-25_20h39.16.746,AudTraining2,2021.2.3,MacIntel,30.00120005,,,,,,,,,,,,,,RegPatterns/20-ms_2_1_1_2_2_3_1_unit230.mp3,0,2,0,2,0,1,,,,,,,,,,,,,,,,,,
,,,,,,,,,,,,,train37_audtrain2,2023-11-25_20h39.16.746,AudTraining2,2021.2.3,MacIntel,30.00120005,,,,,,,,,,,,,,,,,,,,,2,2.9741,1,9,21,11,1,RegPatterns/20-ms_2_1_1_2_2_3_1_unit230.mp3,RegPatterns/20d-ms_2_1_1_2_2_1_3_unit230.mp3,,,,,,,,,
,,,,,,,,,,,,,train37_audtrain2,2023-11-25_20h39.16.746,AudTraining2,2021.2.3,MacIntel,30.00120005,,,,,,,,,,,,,,RegPatterns/09-ms_2_1_1_1_3_4_unit270.mp3,0,0,0,0,0,1,,,,,,,,,,,,,,,,,,
,,,,,,,,,,,,,train37_audtrain2,2023-11-25_20h39.16.746,AudTraining2,2021.2.3,MacIntel,30.00120005,,,,,,,,,,,,,,RegPatterns/09d-ms_2_1_1_3_1_4_unit270.mp3,2,1,0,1,0,1,,,,,,,,,,,,,,,,,,
,,,,,,,,,,,,,train37_audtrain2,2023-11-25_20h39.16.746,AudTraining2,2021.2.3,MacIntel,30.00120005,,,,,,,,,,,,,,RegPatterns/09-ms_2_1_1_1_3_4_unit270.mp3,0,2,0,2,0,1,,,,,,,,,,,,,,,,,,
,,,,,,,,,,,,,train37_audtrain2,2023-11-25_20h39.16.746,AudTraining2,2021.2.3,MacIntel,30.00120005,,,,,,,,,,,,,,,,,,,,,2,0.1433,1,10,22,2,1,RegPatterns/09-ms_2_1_1_1_3_4_unit270.mp3,RegPatterns/09d-ms_2_1_1_3_1_4_unit270.mp3,,,,,,,,,
,,,,,,,,,,,,,train37_audtrain2,2023-11-25_20h39.16.746,AudTraining2,2021.2.3,MacIntel,30.00120005,,,,,,,,,,,,,,RegPatterns/14-ms_2_1_1_4_1_3_unit250.mp3,0,0,0,0,0,1,,,,,,,,,,,,,,,,,,
,,,,,,,,,,,,,train37_audtrain2,2023-11-25_20h39.16.746,AudTraining2,2021.2.3,MacIntel,30.00120005,,,,,,,,,,,,,,RegPatterns/14-ms_2_1_1_4_1_3_unit250.mp3,0,1,0,1,0,1,,,,,,,,,,,,,,,,,,
,,,,,,,,,,,,,train37_audtrain2,2023-11-25_20h39.16.746,AudTraining2,2021.2.3,MacIntel,30.00120005,,,,,,,,,,,,,,RegPatterns/14d-ms_2_1_1_4_3_1_unit250.mp3,3,2,0,2,0,1,,,,,,,,,,,,,,,,,,
,,,,,,,,,,,,,train37_audtrain2,2023-11-25_20h39.16.746,AudTraining2,2021.2.3,MacIntel,30.00120005,,,,,,,,,,,,,,,,,,,,,1,0.3838,1,11,23,4,1,RegPatterns/14-ms_2_1_1_4_1_3_unit250.mp3,RegPatterns/14d-ms_2_1_1_4_3_1_unit250.mp3,,,,,,,,,
,,,,,,,,,,,,,train37_audtrain2,2023-11-25_20h39.16.746,AudTraining2,2021.2.3,MacIntel,30.00120005,,,,,,,,,,,,,,RegPatterns/16-ms_3_1_2_2_1_3_unit230.mp3,0,0,0,0,0,1,,,,,,,,,,,,,,,,,,
,,,,,,,,,,,,,train37_audtrain2,2023-11-25_20h39.16.746,AudTraining2,2021.2.3,MacIntel,30.00120005,,,,,,,,,,,,,,RegPatterns/16-ms_3_1_2_2_1_3_unit230.mp3,0,1,0,1,0,1,,,,,,,,,,,,,,,,,,
,,,,,,,,,,,,,train37_audtrain2,2023-11-25_20h39.16.746,AudTraining2,2021.2.3,MacIntel,30.00120005,,,,,,,,,,,,,,RegPatterns/16d-ms_3_1_2_2_3_1_unit230.mp3,3,2,0,2,0,1,,,,,,,,,,,,,,,,,,
,,,,,,,,,,,,,train37_audtrain2,2023-11-25_20h39.16.746,AudTraining2,2021.2.3,MacIntel,30.00120005,,,,,,,,,,,,,,,,,,,,,3,0.4713,2,0,24,5,1,RegPatterns/16-ms_3_1_2_2_1_3_unit230.mp3,RegPatterns/16d-ms_3_1_2_2_3_1_unit230.mp3,,,,,,,,,
,,,,,,,,,,,,,train37_audtrain2,2023-11-25_20h39.16.746,AudTraining2,2021.2.3,MacIntel,30.00120005,,,,,,,,,,,,,,RegPatterns/14d-ms_2_1_1_4_3_1_unit250.mp3,1,0,0,0,0,1,,,,,,,,,,,,,,,,,,
,,,,,,,,,,,,,train37_audtrain2,2023-11-25_20h39.16.746,AudTraining2,2021.2.3,MacIntel,30.00120005,,,,,,,,,,,,,,RegPatterns/14-ms_2_1_1_4_1_3_unit250.mp3,0,1,0,1,0,1,,,,,,,,,,,,,,,,,,
,,,,,,,,,,,,,train37_audtrain2,2023-11-25_20h39.16.746,AudTraining2,2021.2.3,MacIntel,30.00120005,,,,,,,,,,,,,,RegPatterns/14-ms_2_1_1_4_1_3_unit250.mp3,0,2,0,2,0,1,,,,,,,,,,,,,,,,,,
,,,,,,,,,,,,,train37_audtrain2,2023-11-25_20h39.16.746,AudTraining2,2021.2.3,MacIntel,30.00120005,,,,,,,,,,RegPatterns/Noise.mp3,RegPatterns/Noise.mp3,,,,,,,,,,1,2.7063,,,,,,,,g,0.4976,0,0,0,0,1,,
,,,,,,,,,,,,,train37_audtrain2,2023-11-25_20h39.16.746,AudTraining2,2021.2.3,MacIntel,30.00120005,,,,,,,,,,,,,,,,,,,,,,,2,1,25,4,1,RegPatterns/14-ms_2_1_1_4_1_3_unit250.mp3,RegPatterns/14d-ms_2_1_1_4_3_1_unit250.mp3,,,,,,,,,
,,,,,,,,,,,,,train37_audtrain2,2023-11-25_20h39.16.746,AudTraining2,2021.2.3,MacIntel,30.00120005,,,,,,,,,,,,,,RegPatterns/26-ms_1_1_2_2_1_1_4_unit250.mp3,0,0,0,0,0,1,,,,,,,,,,,,,,,,,,
,,,,,,,,,,,,,train37_audtrain2,2023-11-25_20h39.16.746,AudTraining2,2021.2.3,MacIntel,30.00120005,,,,,,,,,,,,,,RegPatterns/26d-ms_1_1_2_1_1_2_4_unit250.mp3,2,1,0,1,0,1,,,,,,,,,,,,,,,,,,
,,,,,,,,,,,,,train37_audtrain2,2023-11-25_20h39.16.746,AudTraining2,2021.2.3,MacIntel,30.00120005,,,,,,,,,,,,,,RegPatterns/26-ms_1_1_2_2_1_1_4_unit250.mp3,0,2,0,2,0,1,,,,,,,,,,,,,,,,,,
,,,,,,,,,,,,,train37_audtrain2,2023-11-25_20h39.16.746,AudTraining2,2021.2.3,MacIntel,30.00120005,,,,,,,,,,,,,,,,,,,,,2,0.6864,2,2,26,8,1,RegPatterns/26-ms_1_1_2_2_1_1_4_unit250.mp3,RegPatterns/26d-ms_1_1_2_1_1_2_4_unit250.mp3,,,,,,,,,
,,,,,,,,,,,,,train37_audtrain2,2023-11-25_20h39.16.746,AudTraining2,2021.2.3,MacIntel,30.00120005,,,,,,,,,,,,,,RegPatterns/12-ms_3_1_1_3_2_2_unit270.mp3,0,0,0,0,0,1,,,,,,,,,,,,,,,,,,
,,,,,,,,,,,,,train37_audtrain2,2023-11-25_20h39.16.746,AudTraining2,2021.2.3,MacIntel,30.00120005,,,,,,,,,,,,,,RegPatterns/12-ms_3_1_1_3_2_2_unit270.mp3,0,1,0,1,0,1,,,,,,,,,,,,,,,,,,
,,,,,,,,,,,,,train37_audtrain2,2023-11-25_20h39.16.746,AudTraining2,2021.2.3,MacIntel,30.00120005,,,,,,,,,,,,,,RegPatterns/12d-ms_3_1_3_1_2_2_unit270.mp3,3,2,0,2,0,1,,,,,,,,,,,,,,,,,,
,,,,,,,,,,,,,train37_audtrain2,2023-11-25_20h39.16.746,AudTraining2,2021.2.3,MacIntel,30.00120005,,,,,,,,,,,,,,,,,,,,,2,7.4688,2,3,27,3,1,RegPatterns/12-ms_3_1_1_3_2_2_unit270.mp3,RegPatterns/12d-ms_3_1_3_1_2_2_unit270.mp3,,,,,,,,,
,,,,,,,,,,,,,train37_audtrain2,2023-11-25_20h39.16.746,AudTraining2,2021.2.3,MacIntel,30.00120005,,,,,,,,,,,,,,RegPatterns/18-ms_4_2_2_1_1_2_unit270.mp3,0,0,0,0,0,1,,,,,,,,,,,,,,,,,,
,,,,,,,,,,,,,train37_audtrain2,2023-11-25_20h39.16.746,AudTraining2,2021.2.3,MacIntel,30.00120005,,,,,,,,,,,,,,RegPatterns/18d-ms_4_2_2_2_1_1_unit270.mp3,2,1,0,1,0,1,,,,,,,,,,,,,,,,,,
,,,,,,,,,,,,,train37_audtrain2,2023-11-25_20h39.16.746,AudTraining2,2021.2.3,MacIntel,30.00120005,,,,,,,,,,,,,,RegPatterns/18-ms_4_2_2_1_1_2_unit270.mp3,0,2,0,2,0,1,,,,,,,,,,,,,,,,,,
,,,,,,,,,,,,,train37_audtrain2,2023-11-25_20h39.16.746,AudTraining2,2021.2.3,MacIntel,30.00120005,,,,,,,,,,,,,,,,,,,,,2,0.5123,2,4,28,6,1,RegPatterns/18-ms_4_2_2_1_1_2_unit270.mp3,RegPatterns/18d-ms_4_2_2_2_1_1_unit270.mp3,,,,,,,,,
,,,,,,,,,,,,,train37_audtrain2,2023-11-25_20h39.16.746,AudTraining2,2021.2.3,MacIntel,30.00120005,,,,,,,,,,,,,,RegPatterns/03-ms_3_1_4_2_2_unit270.mp3,0,0,0,0,0,1,,,,,,,,,,,,,,,,,,
,,,,,,,,,,,,,train37_audtrain2,2023-11-25_20h39.16.746,AudTraining2,2021.2.3,MacIntel,30.00120005,,,,,,,,,,,,,,RegPatterns/03d-ms_1_3_4_2_2_unit270.mp3,2,1,0,1,0,1,,,,,,,,,,,,,,,,,,
,,,,,,,,,,,,,train37_audtrain2,2023-11-25_20h39.16.746,AudTraining2,2021.2.3,MacIntel,30.00120005,,,,,,,,,,,,,,RegPatterns/03-ms_3_1_4_2_2_unit270.mp3,0,2,0,2,0,1,,,,,,,,,,,,,,,,,,
,,,,,,,,,,,,,train37_audtrain2,2023-11-25_20h39.16.746,AudTraining2,2021.2.3,MacIntel,30.00120005,,,,,,,,,,,,,,,,,,,,,1,0.2907,2,5,29,1,1,RegPatterns/03-ms_3_1_4_2_2_unit270.mp3,RegPatterns/03d-ms_1_3_4_2_2_unit270.mp3,,,,,,,,,
,,,,,,,,,,,,,train37_audtrain2,2023-11-25_20h39.16.746,AudTraining2,2021.2.3,MacIntel,30.00120005,,,,,,,,,,,,,,RegPatterns/30-ms_3_1_2_2_1_1_2_unit230.mp3,0,0,0,0,0,1,,,,,,,,,,,,,,,,,,
,,,,,,,,,,,,,train37_audtrain2,2023-11-25_20h39.16.746,AudTraining2,2021.2.3,MacIntel,30.00120005,,,,,,,,,,,,,,RegPatterns/30-ms_3_1_2_2_1_1_2_unit230.mp3,0,1,0,1,0,1,,,,,,,,,,,,,,,,,,
,,,,,,,,,,,,,train37_audtrain2,2023-11-25_20h39.16.746,AudTraining2,2021.2.3,MacIntel,30.00120005,,,,,,,,,,,,,,RegPatterns/30d-ms_1_3_2_2_1_1_2_unit230.mp3,3,2,0,2,0,1,,,,,,,,,,,,,,,,,,
,,,,,,,,,,,,,train37_audtrain2,2023-11-25_20h39.16.746,AudTraining2,2021.2.3,MacIntel,30.00120005,,,,,,,,,,,,,,,,,,,,,3,0.4344,2,6,30,10,1,RegPatterns/30-ms_3_1_2_2_1_1_2_unit230.mp3,RegPatterns/30d-ms_1_3_2_2_1_1_2_unit230.mp3,,,,,,,,,
,,,,,,,,,,,,,train37_audtrain2,2023-11-25_20h39.16.746,AudTraining2,2021.2.3,MacIntel,30.00120005,,,,,,,,,,,,,,RegPatterns/19-ms_1_1_2_3_1_2_2_unit230.mp3,0,0,0,0,0,1,,,,,,,,,,,,,,,,,,
,,,,,,,,,,,,,train37_audtrain2,2023-11-25_20h39.16.746,AudTraining2,2021.2.3,MacIntel,30.00120005,,,,,,,,,,,,,,RegPatterns/19-ms_1_1_2_3_1_2_2_unit230.mp3,0,1,0,1,0,1,,,,,,,,,,,,,,,,,,
,,,,,,,,,,,,,train37_audtrain2,2023-11-25_20h39.16.746,AudTraining2,2021.2.3,MacIntel,30.00120005,,,,,,,,,,,,,,RegPatterns/19d-ms_1_1_2_1_3_2_2_unit230.mp3,3,2,0,2,0,1,,,,,,,,,,,,,,,,,,
,,,,,,,,,,,,,train37_audtrain2,2023-11-25_20h39.16.746,AudTraining2,2021.2.3,MacIntel,30.00120005,,,,,,,,,,,,,,,,,,,,,1,0.9693,2,7,31,7,1,RegPatterns/19-ms_1_1_2_3_1_2_2_unit230.mp3,RegPatterns/19d-ms_1_1_2_1_3_2_2_unit230.mp3,,,,,,,,,
,,,,,,,,,,,,,train37_audtrain2,2023-11-25_20h39.16.746,AudTraining2,2021.2.3,MacIntel,30.00120005,,,,,,,,,,,,,,RegPatterns/02-ms_3_1_4_1_3_unit250.mp3,0,0,0,0,0,1,,,,,,,,,,,,,,,,,,
,,,,,,,,,,,,,train37_audtrain2,2023-11-25_20h39.16.746,AudTraining2,2021.2.3,MacIntel,30.00120005,,,,,,,,,,,,,,RegPatterns/02d-ms_3_1_4_3_1_unit250.mp3,2,1,0,1,0,1,,,,,,,,,,,,,,,,,,
,,,,,,,,,,,,,train37_audtrain2,2023-11-25_20h39.16.746,AudTraining2,2021.2.3,MacIntel,30.00120005,,,,,,,,,,,,,,RegPatterns/02-ms_3_1_4_1_3_unit250.mp3,0,2,0,2,0,1,,,,,,,,,,,,,,,,,,
,,,,,,,,,,,,,train37_audtrain2,2023-11-25_20h39.16.746,AudTraining2,2021.2.3,MacIntel,30.00120005,,,,,,,,,,,,,,,,,,,,,3,1.0213,2,8,32,0,1,RegPatterns/02-ms_3_1_4_1_3_unit250.mp3,RegPatterns/02d-ms_3_1_4_3_1_unit250.mp3,,,,,,,,,
,,,,,,,,,,,,,train37_audtrain2,2023-11-25_20h39.16.746,AudTraining2,2021.2.3,MacIntel,30.00120005,,,,,,,,,,,,,,RegPatterns/29d-ms_3_1_2_1_1_3_1_unit250.mp3,1,0,0,0,0,1,,,,,,,,,,,,,,,,,,
,,,,,,,,,,,,,train37_audtrain2,2023-11-25_20h39.16.746,AudTraining2,2021.2.3,MacIntel,30.00120005,,,,,,,,,,,,,,RegPatterns/29-ms_3_1_2_1_1_1_3_unit250.mp3,0,1,0,1,0,1,,,,,,,,,,,,,,,,,,
,,,,,,,,,,,,,train37_audtrain2,2023-11-25_20h39.16.746,AudTraining2,2021.2.3,MacIntel,30.00120005,,,,,,,,,,,,,,RegPatterns/29-ms_3_1_2_1_1_1_3_unit250.mp3,0,2,0,2,0,1,,,,,,,,,,,,,,,,,,
,,,,,,,,,,,,,train37_audtrain2,2023-11-25_20h39.16.746,AudTraining2,2021.2.3,MacIntel,30.00120005,,,,,,,,,,,,,,,,,,,,,1,0.387,2,9,33,9,1,RegPatterns/29-ms_3_1_2_1_1_1_3_unit250.mp3,RegPatterns/29d-ms_3_1_2_1_1_3_1_unit250.mp3,,,,,,,,,
,,,,,,,,,,,,,train37_audtrain2,2023-11-25_20h39.16.746,AudTraining2,2021.2.3,MacIntel,30.00120005,,,,,,,,,,,,,,RegPatterns/20-ms_2_1_1_2_2_3_1_unit230.mp3,0,0,0,0,0,1,,,,,,,,,,,,,,,,,,
,,,,,,,,,,,,,train37_audtrain2,2023-11-25_20h39.16.746,AudTraining2,2021.2.3,MacIntel,30.00120005,,,,,,,,,,,,,,RegPatterns/20d-ms_2_1_1_2_2_1_3_unit230.mp3,2,1,0,1,0,1,,,,,,,,,,,,,,,,,,
,,,,,,,,,,,,,train37_audtrain2,2023-11-25_20h39.16.746,AudTraining2,2021.2.3,MacIntel,30.00120005,,,,,,,,,,,,,,RegPatterns/20-ms_2_1_1_2_2_3_1_unit230.mp3,0,2,0,2,0,1,,,,,,,,,,,,,,,,,,
,,,,,,,,,,,,,train37_audtrain2,2023-11-25_20h39.16.746,AudTraining2,2021.2.3,MacIntel,30.00120005,,,,,,,,,,,,,,,,,,,,,2,0.2601,2,10,34,11,1,RegPatterns/20-ms_2_1_1_2_2_3_1_unit230.mp3,RegPatterns/20d-ms_2_1_1_2_2_1_3_unit230.mp3,,,,,,,,,
,,,,,,,,,,,,,train37_audtrain2,2023-11-25_20h39.16.746,AudTraining2,2021.2.3,MacIntel,30.00120005,,,,,,,,,,,,,,RegPatterns/09-ms_2_1_1_1_3_4_unit270.mp3,0,0,0,0,0,1,,,,,,,,,,,,,,,,,,
,,,,,,,,,,,,,train37_audtrain2,2023-11-25_20h39.16.746,AudTraining2,2021.2.3,MacIntel,30.00120005,,,,,,,,,,,,,,RegPatterns/09-ms_2_1_1_1_3_4_unit270.mp3,0,1,0,1,0,1,,,,,,,,,,,,,,,,,,
,,,,,,,,,,,,,train37_audtrain2,2023-11-25_20h39.16.746,AudTraining2,2021.2.3,MacIntel,30.00120005,,,,,,,,,,,,,,RegPatterns/09d-ms_2_1_1_3_1_4_unit270.mp3,3,2,0,2,0,1,,,,,,,,,,,,,,,,,,
,,,,,,,,,,,,,train37_audtrain2,2023-11-25_20h39.16.746,AudTraining2,2021.2.3,MacIntel,30.00120005,,,,,,,,,,,,,,,,,,,,,3,4.5425,2,11,35,2,1,RegPatterns/09-ms_2_1_1_1_3_4_unit270.mp3,RegPatterns/09d-ms_2_1_1_3_1_4_unit270.mp3,,,,,,,,,
,,,,,,,,,,,,,train37_audtrain2,2023-11-25_20h39.16.746,AudTraining2,2021.2.3,MacIntel,30.00120005,,,,,,,,,,,,,,,,,,,,,,,,,,,,,,,,,,,,,space,3.6712
