key_resp.keys,key_resp.rt,key_resp_8.keys,key_resp_8.rt,key_resp_9.keys,key_resp_9.rt,trials.thisRepN,trials.thisTrialN,trials.thisN,trials.thisIndex,trials.ran,volstandard,voldeviant,participant,date,expName,psychopyVersion,OS,frameRate,key_resp_2.keys,key_resp_2.rt,key_resp_4.keys,key_resp_4.rt,trials_5.thisRepN,trials_5.thisTrialN,trials_5.thisN,trials_5.thisIndex,trials_5.ran,RegStandardPitch,RegDeviantPitch,key_resp_5.keys,key_resp_5.rt,RegAudSequence,diff-reg,trials_2.thisRepN,trials_2.thisTrialN,trials_2.thisN,trials_2.thisIndex,trials_2.ran,key_resp_7.keys,key_resp_7.rt,trials_3.thisRepN,trials_3.thisTrialN,trials_3.thisN,trials_3.thisIndex,trials_3.ran,standard,devient,key_resp_6.keys,key_resp_6.rt,trials_4.thisRepN,trials_4.thisTrialN,trials_4.thisN,trials_4.thisIndex,trials_4.ran,key_resp_10.keys,key_resp_10.rt
space,0.8618,space,1.5689,space,0.6927,0,0,0,0,1,RegPatterns/01-ms_2_2_4_1_3_unit230.mp3,RegPatterns/01d-ms_2_2_4_3_1_unit230.mp3,train53_audtrain1,2024-01-20_10h50.45.210,AudTraining1,2021.2.3,MacIntel,119.047619,,,,,,,,,,,,,,,,,,,,,,,,,,,,,,,,,,,,,,
,,,,,,,,,,,,,train53_audtrain1,2024-01-20_10h50.45.210,AudTraining1,2021.2.3,MacIntel,119.047619,space,3.5362,2,12.9894,0,0,0,0,1,RegPatterns/Noise.mp3,RegPatterns/Noise.mp3,,,,,,,,,,,,,,,,,,,,,,,,,,,
,,,,,,,,,,,,,train53_audtrain1,2024-01-20_10h50.45.210,AudTraining1,2021.2.3,MacIntel,119.047619,,,,,,,,,,,,space,9.7446,RegPatterns/21-ms_2_1_1_3_1_1_3_unit270.mp3,0,0,0,0,0,1,,,,,,,,,,,,,,,,,,
,,,,,,,,,,,,,train53_audtrain1,2024-01-20_10h50.45.210,AudTraining1,2021.2.3,MacIntel,119.047619,,,,,,,,,,,,,,RegPatterns/21d-ms_2_1_1_3_1_3_1_unit270.mp3,2,1,0,1,0,1,,,,,,,,,,,,,,,,,,
,,,,,,,,,,,,,train53_audtrain1,2024-01-20_10h50.45.210,AudTraining1,2021.2.3,MacIntel,119.047619,,,,,,,,,,,,,,RegPatterns/21-ms_2_1_1_3_1_1_3_unit270.mp3,0,2,0,2,0,1,,,,,,,,,,,,,,,,,,
,,,,,,,,,,,,,train53_audtrain1,2024-01-20_10h50.45.210,AudTraining1,2021.2.3,MacIntel,119.047619,,,,,,,,,,,,,,,,,,,,,1,3.086,0,0,0,7,1,RegPatterns/21-ms_2_1_1_3_1_1_3_unit270.mp3,RegPatterns/21d-ms_2_1_1_3_1_3_1_unit270.mp3,,,,,,,,,
,,,,,,,,,,,,,train53_audtrain1,2024-01-20_10h50.45.210,AudTraining1,2021.2.3,MacIntel,119.047619,,,,,,,,,,,,,,RegPatterns/06d-ms_4_1_3_2_2_unit270.mp3,1,0,0,0,0,1,,,,,,,,,,,,,,,,,,
,,,,,,,,,,,,,train53_audtrain1,2024-01-20_10h50.45.210,AudTraining1,2021.2.3,MacIntel,119.047619,,,,,,,,,,,,,,RegPatterns/06-ms_4_3_1_2_2_unit270.mp3,0,1,0,1,0,1,,,,,,,,,,,,,,,,,,
,,,,,,,,,,,,,train53_audtrain1,2024-01-20_10h50.45.210,AudTraining1,2021.2.3,MacIntel,119.047619,,,,,,,,,,,,,,RegPatterns/06-ms_4_3_1_2_2_unit270.mp3,0,2,0,2,0,1,,,,,,,,,,,,,,,,,,
,,,,,,,,,,,,,train53_audtrain1,2024-01-20_10h50.45.210,AudTraining1,2021.2.3,MacIntel,119.047619,,,,,,,,,,,,,,,,,,,,,1,3.842,0,1,1,1,1,RegPatterns/06-ms_4_3_1_2_2_unit270.mp3,RegPatterns/06d-ms_4_1_3_2_2_unit270.mp3,,,,,,,,,
,,,,,,,,,,,,,train53_audtrain1,2024-01-20_10h50.45.210,AudTraining1,2021.2.3,MacIntel,119.047619,,,,,,,,,,,,,,RegPatterns/15d-ms_2_2_1_3_1_3_unit270.mp3,1,0,0,0,0,1,,,,,,,,,,,,,,,,,,
,,,,,,,,,,,,,train53_audtrain1,2024-01-20_10h50.45.210,AudTraining1,2021.2.3,MacIntel,119.047619,,,,,,,,,,,,,,RegPatterns/15-ms_2_2_1_3_3_1_unit270.mp3,0,1,0,1,0,1,,,,,,,,,,,,,,,,,,
,,,,,,,,,,,,,train53_audtrain1,2024-01-20_10h50.45.210,AudTraining1,2021.2.3,MacIntel,119.047619,,,,,,,,,,,,,,RegPatterns/15-ms_2_2_1_3_3_1_unit270.mp3,0,2,0,2,0,1,,,,,,,,,,,,,,,,,,
,,,,,,,,,,,,,train53_audtrain1,2024-01-20_10h50.45.210,AudTraining1,2021.2.3,MacIntel,119.047619,,,,,,,,,,,,,,,,,,,,,2,3.6471,0,2,2,5,1,RegPatterns/15-ms_2_2_1_3_3_1_unit270.mp3,RegPatterns/15d-ms_2_2_1_3_1_3_unit270.mp3,,,,,,,,,
,,,,,,,,,,,,,train53_audtrain1,2024-01-20_10h50.45.210,AudTraining1,2021.2.3,MacIntel,119.047619,,,,,,,,,,,,,,RegPatterns/07-ms_1_1_2_3_1_4_unit230.mp3,0,0,0,0,0,1,,,,,,,,,,,,,,,,,,
,,,,,,,,,,,,,train53_audtrain1,2024-01-20_10h50.45.210,AudTraining1,2021.2.3,MacIntel,119.047619,,,,,,,,,,,,,,RegPatterns/07-ms_1_1_2_3_1_4_unit230.mp3,0,1,0,1,0,1,,,,,,,,,,,,,,,,,,
,,,,,,,,,,,,,train53_audtrain1,2024-01-20_10h50.45.210,AudTraining1,2021.2.3,MacIntel,119.047619,,,,,,,,,,,,,,RegPatterns/07d-ms_1_1_2_1_3_4_unit230.mp3,3,2,0,2,0,1,,,,,,,,,,,,,,,,,,
,,,,,,,,,,,,,train53_audtrain1,2024-01-20_10h50.45.210,AudTraining1,2021.2.3,MacIntel,119.047619,,,,,,,,,,,,,,,,,,,,,2,1.7109,0,3,3,2,1,RegPatterns/07-ms_1_1_2_3_1_4_unit230.mp3,RegPatterns/07d-ms_1_1_2_1_3_4_unit230.mp3,,,,,,,,,
,,,,,,,,,,,,,train53_audtrain1,2024-01-20_10h50.45.210,AudTraining1,2021.2.3,MacIntel,119.047619,,,,,,,,,,,,,,RegPatterns/13-ms_2_1_1_2_2_4_unit230.mp3,0,0,0,0,0,1,,,,,,,,,,,,,,,,,,
,,,,,,,,,,,,,train53_audtrain1,2024-01-20_10h50.45.210,AudTraining1,2021.2.3,MacIntel,119.047619,,,,,,,,,,,,,,RegPatterns/13-ms_2_1_1_2_2_4_unit230.mp3,0,1,0,1,0,1,,,,,,,,,,,,,,,,,,
,,,,,,,,,,,,,train53_audtrain1,2024-01-20_10h50.45.210,AudTraining1,2021.2.3,MacIntel,119.047619,,,,,,,,,,,,,,RegPatterns/13d-ms_1_1_2_2_2_4_unit230.mp3,3,2,0,2,0,1,,,,,,,,,,,,,,,,,,
,,,,,,,,,,,,,train53_audtrain1,2024-01-20_10h50.45.210,AudTraining1,2021.2.3,MacIntel,119.047619,,,,,,,,,,,,,,,,,,,,,3,6.1339,0,4,4,4,1,RegPatterns/13-ms_2_1_1_2_2_4_unit230.mp3,RegPatterns/13d-ms_1_1_2_2_2_4_unit230.mp3,,,,,,,,,
,,,,,,,,,,,,,train53_audtrain1,2024-01-20_10h50.45.210,AudTraining1,2021.2.3,MacIntel,119.047619,,,,,,,,,,,,,,RegPatterns/28-ms_2_2_1_1_1_1_4_unit250.mp3,0,0,0,0,0,1,,,,,,,,,,,,,,,,,,
,,,,,,,,,,,,,train53_audtrain1,2024-01-20_10h50.45.210,AudTraining1,2021.2.3,MacIntel,119.047619,,,,,,,,,,,,,,RegPatterns/28d-ms_2_1_1_2_1_1_4_unit250.mp3,2,1,0,1,0,1,,,,,,,,,,,,,,,,,,
,,,,,,,,,,,,,train53_audtrain1,2024-01-20_10h50.45.210,AudTraining1,2021.2.3,MacIntel,119.047619,,,,,,,,,,,,,,RegPatterns/28-ms_2_2_1_1_1_1_4_unit250.mp3,0,2,0,2,0,1,,,,,,,,,,,,,,,,,,
,,,,,,,,,,,,,train53_audtrain1,2024-01-20_10h50.45.210,AudTraining1,2021.2.3,MacIntel,119.047619,,,,,,,,,,,,,,,,,,,,,2,5.8961,0,5,5,11,1,RegPatterns/28-ms_2_2_1_1_1_1_4_unit250.mp3,RegPatterns/28d-ms_2_1_1_2_1_1_4_unit250.mp3,,,,,,,,,
,,,,,,,,,,,,,train53_audtrain1,2024-01-20_10h50.45.210,AudTraining1,2021.2.3,MacIntel,119.047619,,,,,,,,,,,,,,RegPatterns/27d-ms_1_1_2_3_1_3_1_unit270.mp3,1,0,0,0,0,1,,,,,,,,,,,,,,,,,,
,,,,,,,,,,,,,train53_audtrain1,2024-01-20_10h50.45.210,AudTraining1,2021.2.3,MacIntel,119.047619,,,,,,,,,,,,,,RegPatterns/27-ms_1_1_2_3_1_1_3_unit270.mp3,0,1,0,1,0,1,,,,,,,,,,,,,,,,,,
,,,,,,,,,,,,,train53_audtrain1,2024-01-20_10h50.45.210,AudTraining1,2021.2.3,MacIntel,119.047619,,,,,,,,,,,,,,RegPatterns/27-ms_1_1_2_3_1_1_3_unit270.mp3,0,2,0,2,0,1,,,,,,,,,,,,,,,,,,
,,,,,,,,,,,,,train53_audtrain1,2024-01-20_10h50.45.210,AudTraining1,2021.2.3,MacIntel,119.047619,,,,,,,,,,,,,,,,,,,,,1,1.7506,0,6,6,10,1,RegPatterns/27-ms_1_1_2_3_1_1_3_unit270.mp3,RegPatterns/27d-ms_1_1_2_3_1_3_1_unit270.mp3,,,,,,,,,
,,,,,,,,,,,,,train53_audtrain1,2024-01-20_10h50.45.210,AudTraining1,2021.2.3,MacIntel,119.047619,,,,,,,,,,,,,,RegPatterns/24-ms_4_2_2_1_1_1_1_unit230.mp3,0,0,0,0,0,1,,,,,,,,,,,,,,,,,,
,,,,,,,,,,,,,train53_audtrain1,2024-01-20_10h50.45.210,AudTraining1,2021.2.3,MacIntel,119.047619,,,,,,,,,,,,,,RegPatterns/24-ms_4_2_2_1_1_1_1_unit230.mp3,0,1,0,1,0,1,,,,,,,,,,,,,,,,,,
,,,,,,,,,,,,,train53_audtrain1,2024-01-20_10h50.45.210,AudTraining1,2021.2.3,MacIntel,119.047619,,,,,,,,,,,,,,RegPatterns/24d-ms_4_2_1_1_2_1_1_unit230.mp3,3,2,0,2,0,1,,,,,,,,,,,,,,,,,,
,,,,,,,,,,,,,train53_audtrain1,2024-01-20_10h50.45.210,AudTraining1,2021.2.3,MacIntel,119.047619,,,,,,,,,,,,,,,,,,,,,2,1.6813,0,7,7,9,1,RegPatterns/24-ms_4_2_2_1_1_1_1_unit230.mp3,RegPatterns/24d-ms_4_2_1_1_2_1_1_unit230.mp3,,,,,,,,,
,,,,,,,,,,,,,train53_audtrain1,2024-01-20_10h50.45.210,AudTraining1,2021.2.3,MacIntel,119.047619,,,,,,,,,,,,,,RegPatterns/04d-ms_4_3_1_3_1_unit230.mp3,1,0,0,0,0,1,,,,,,,,,,,,,,,,,,
,,,,,,,,,,,,,train53_audtrain1,2024-01-20_10h50.45.210,AudTraining1,2021.2.3,MacIntel,119.047619,,,,,,,,,,,,,,RegPatterns/04-ms_4_1_3_3_1_unit230.mp3,0,1,0,1,0,1,,,,,,,,,,,,,,,,,,
,,,,,,,,,,,,,train53_audtrain1,2024-01-20_10h50.45.210,AudTraining1,2021.2.3,MacIntel,119.047619,,,,,,,,,,,,,,RegPatterns/04-ms_4_1_3_3_1_unit230.mp3,0,2,0,2,0,1,,,,,,,,,,,,,,,,,,
,,,,,,,,,,,,,train53_audtrain1,2024-01-20_10h50.45.210,AudTraining1,2021.2.3,MacIntel,119.047619,,,,,,,,,,,,,,,,,,,,,3,4.0038,0,8,8,0,1,RegPatterns/04-ms_4_1_3_3_1_unit230.mp3,RegPatterns/04d-ms_4_3_1_3_1_unit230.mp3,,,,,,,,,
,,,,,,,,,,,,,train53_audtrain1,2024-01-20_10h50.45.210,AudTraining1,2021.2.3,MacIntel,119.047619,,,,,,,,,,,,,,RegPatterns/23d-ms_4_1_1_1_1_1_3_unit250.mp3,1,0,0,0,0,1,,,,,,,,,,,,,,,,,,
,,,,,,,,,,,,,train53_audtrain1,2024-01-20_10h50.45.210,AudTraining1,2021.2.3,MacIntel,119.047619,,,,,,,,,,,,,,RegPatterns/23-ms_4_1_1_1_1_3_1_unit250.mp3,0,1,0,1,0,1,,,,,,,,,,,,,,,,,,
,,,,,,,,,,,,,train53_audtrain1,2024-01-20_10h50.45.210,AudTraining1,2021.2.3,MacIntel,119.047619,,,,,,,,,,,,,,RegPatterns/23-ms_4_1_1_1_1_3_1_unit250.mp3,0,2,0,2,0,1,,,,,,,,,,,,,,,,,,
,,,,,,,,,,,,,train53_audtrain1,2024-01-20_10h50.45.210,AudTraining1,2021.2.3,MacIntel,119.047619,,,,,,,,,,,,,,,,,,,,,2,2.438,0,9,9,8,1,RegPatterns/23-ms_4_1_1_1_1_3_1_unit250.mp3,RegPatterns/23d-ms_4_1_1_1_1_1_3_unit250.mp3,,,,,,,,,
,,,,,,,,,,,,,train53_audtrain1,2024-01-20_10h50.45.210,AudTraining1,2021.2.3,MacIntel,119.047619,,,,,,,,,,,,,,RegPatterns/17d-ms_4_1_1_2_1_3_unit250.mp3,1,0,0,0,0,1,,,,,,,,,,,,,,,,,,
,,,,,,,,,,,,,train53_audtrain1,2024-01-20_10h50.45.210,AudTraining1,2021.2.3,MacIntel,119.047619,,,,,,,,,,,,,,RegPatterns/17-ms_4_1_1_2_3_1_unit250.mp3,0,1,0,1,0,1,,,,,,,,,,,,,,,,,,
,,,,,,,,,,,,,train53_audtrain1,2024-01-20_10h50.45.210,AudTraining1,2021.2.3,MacIntel,119.047619,,,,,,,,,,,,,,RegPatterns/17-ms_4_1_1_2_3_1_unit250.mp3,0,2,0,2,0,1,,,,,,,,,,,,,,,,,,
,,,,,,,,,,,,,train53_audtrain1,2024-01-20_10h50.45.210,AudTraining1,2021.2.3,MacIntel,119.047619,,,,,,,,,,,,,,,,,,,,,3,4.0075,0,10,10,6,1,RegPatterns/17-ms_4_1_1_2_3_1_unit250.mp3,RegPatterns/17d-ms_4_1_1_2_1_3_unit250.mp3,,,,,,,,,
,,,,,,,,,,,,,train53_audtrain1,2024-01-20_10h50.45.210,AudTraining1,2021.2.3,MacIntel,119.047619,,,,,,,,,,,,,,RegPatterns/11-ms_2_2_3_1_1_3_unit250.mp3,0,0,0,0,0,1,,,,,,,,,,,,,,,,,,
,,,,,,,,,,,,,train53_audtrain1,2024-01-20_10h50.45.210,AudTraining1,2021.2.3,MacIntel,119.047619,,,,,,,,,,,,,,RegPatterns/11-ms_2_2_3_1_1_3_unit250.mp3,0,1,0,1,0,1,,,,,,,,,,,,,,,,,,
,,,,,,,,,,,,,train53_audtrain1,2024-01-20_10h50.45.210,AudTraining1,2021.2.3,MacIntel,119.047619,,,,,,,,,,,,,,RegPatterns/11d-ms_2_2_3_1_3_1_unit250.mp3,3,2,0,2,0,1,,,,,,,,,,,,,,,,,,
,,,,,,,,,,,,,train53_audtrain1,2024-01-20_10h50.45.210,AudTraining1,2021.2.3,MacIntel,119.047619,,,,,,,,,,,,,,,,,,,,,2,4.4118,0,11,11,3,1,RegPatterns/11-ms_2_2_3_1_1_3_unit250.mp3,RegPatterns/11d-ms_2_2_3_1_3_1_unit250.mp3,,,,,,,,,
,,,,,,,,,,,,,train53_audtrain1,2024-01-20_10h50.45.210,AudTraining1,2021.2.3,MacIntel,119.047619,,,,,,,,,,,,,,RegPatterns/28d-ms_2_1_1_2_1_1_4_unit250.mp3,1,0,0,0,0,1,,,,,,,,,,,,,,,,,,
,,,,,,,,,,,,,train53_audtrain1,2024-01-20_10h50.45.210,AudTraining1,2021.2.3,MacIntel,119.047619,,,,,,,,,,,,,,RegPatterns/28-ms_2_2_1_1_1_1_4_unit250.mp3,0,1,0,1,0,1,,,,,,,,,,,,,,,,,,
,,,,,,,,,,,,,train53_audtrain1,2024-01-20_10h50.45.210,AudTraining1,2021.2.3,MacIntel,119.047619,,,,,,,,,,,,,,RegPatterns/28-ms_2_2_1_1_1_1_4_unit250.mp3,0,2,0,2,0,1,,,,,,,,,,,,,,,,,,
,,,,,,,,,,,,,train53_audtrain1,2024-01-20_10h50.45.210,AudTraining1,2021.2.3,MacIntel,119.047619,,,,,,,,,,,,,,,,,,,,,3,8.6714,1,0,12,11,1,RegPatterns/28-ms_2_2_1_1_1_1_4_unit250.mp3,RegPatterns/28d-ms_2_1_1_2_1_1_4_unit250.mp3,,,,,,,,,
,,,,,,,,,,,,,train53_audtrain1,2024-01-20_10h50.45.210,AudTraining1,2021.2.3,MacIntel,119.047619,,,,,,,,,,,,,,RegPatterns/06-ms_4_3_1_2_2_unit270.mp3,0,0,0,0,0,1,,,,,,,,,,,,,,,,,,
,,,,,,,,,,,,,train53_audtrain1,2024-01-20_10h50.45.210,AudTraining1,2021.2.3,MacIntel,119.047619,,,,,,,,,,,,,,RegPatterns/06-ms_4_3_1_2_2_unit270.mp3,0,1,0,1,0,1,,,,,,,,,,,,,,,,,,
,,,,,,,,,,,,,train53_audtrain1,2024-01-20_10h50.45.210,AudTraining1,2021.2.3,MacIntel,119.047619,,,,,,,,,,,,,,RegPatterns/06d-ms_4_1_3_2_2_unit270.mp3,3,2,0,2,0,1,,,,,,,,,,,,,,,,,,
,,,,,,,,,,,,,train53_audtrain1,2024-01-20_10h50.45.210,AudTraining1,2021.2.3,MacIntel,119.047619,,,,,,,,,,RegPatterns/Noise.mp3,RegPatterns/Noise.mp3,,,,,,,,,,2,4.4027,,,,,,,,g,5.5535,0,0,0,0,1,,
,,,,,,,,,,,,,train53_audtrain1,2024-01-20_10h50.45.210,AudTraining1,2021.2.3,MacIntel,119.047619,,,,,,,,,,,,,,,,,,,,,,,1,1,13,1,1,RegPatterns/06-ms_4_3_1_2_2_unit270.mp3,RegPatterns/06d-ms_4_1_3_2_2_unit270.mp3,,,,,,,,,
,,,,,,,,,,,,,train53_audtrain1,2024-01-20_10h50.45.210,AudTraining1,2021.2.3,MacIntel,119.047619,,,,,,,,,,,,,,RegPatterns/11d-ms_2_2_3_1_3_1_unit250.mp3,1,0,0,0,0,1,,,,,,,,,,,,,,,,,,
,,,,,,,,,,,,,train53_audtrain1,2024-01-20_10h50.45.210,AudTraining1,2021.2.3,MacIntel,119.047619,,,,,,,,,,,,,,RegPatterns/11-ms_2_2_3_1_1_3_unit250.mp3,0,1,0,1,0,1,,,,,,,,,,,,,,,,,,
,,,,,,,,,,,,,train53_audtrain1,2024-01-20_10h50.45.210,AudTraining1,2021.2.3,MacIntel,119.047619,,,,,,,,,,,,,,RegPatterns/11-ms_2_2_3_1_1_3_unit250.mp3,0,2,0,2,0,1,,,,,,,,,,,,,,,,,,
,,,,,,,,,,,,,train53_audtrain1,2024-01-20_10h50.45.210,AudTraining1,2021.2.3,MacIntel,119.047619,,,,,,,,,,,,,,,,,,,,,2,4.5624,1,2,14,3,1,RegPatterns/11-ms_2_2_3_1_1_3_unit250.mp3,RegPatterns/11d-ms_2_2_3_1_3_1_unit250.mp3,,,,,,,,,
,,,,,,,,,,,,,train53_audtrain1,2024-01-20_10h50.45.210,AudTraining1,2021.2.3,MacIntel,119.047619,,,,,,,,,,,,,,RegPatterns/13d-ms_1_1_2_2_2_4_unit230.mp3,1,0,0,0,0,1,,,,,,,,,,,,,,,,,,
,,,,,,,,,,,,,train53_audtrain1,2024-01-20_10h50.45.210,AudTraining1,2021.2.3,MacIntel,119.047619,,,,,,,,,,,,,,RegPatterns/13-ms_2_1_1_2_2_4_unit230.mp3,0,1,0,1,0,1,,,,,,,,,,,,,,,,,,
,,,,,,,,,,,,,train53_audtrain1,2024-01-20_10h50.45.210,AudTraining1,2021.2.3,MacIntel,119.047619,,,,,,,,,,,,,,RegPatterns/13-ms_2_1_1_2_2_4_unit230.mp3,0,2,0,2,0,1,,,,,,,,,,,,,,,,,,
,,,,,,,,,,,,,train53_audtrain1,2024-01-20_10h50.45.210,AudTraining1,2021.2.3,MacIntel,119.047619,,,,,,,,,,,,,,,,,,,,,2,1.9503,1,3,15,4,1,RegPatterns/13-ms_2_1_1_2_2_4_unit230.mp3,RegPatterns/13d-ms_1_1_2_2_2_4_unit230.mp3,,,,,,,,,
,,,,,,,,,,,,,train53_audtrain1,2024-01-20_10h50.45.210,AudTraining1,2021.2.3,MacIntel,119.047619,,,,,,,,,,,,,,RegPatterns/15-ms_2_2_1_3_3_1_unit270.mp3,0,0,0,0,0,1,,,,,,,,,,,,,,,,,,
,,,,,,,,,,,,,train53_audtrain1,2024-01-20_10h50.45.210,AudTraining1,2021.2.3,MacIntel,119.047619,,,,,,,,,,,,,,RegPatterns/15d-ms_2_2_1_3_1_3_unit270.mp3,2,1,0,1,0,1,,,,,,,,,,,,,,,,,,
,,,,,,,,,,,,,train53_audtrain1,2024-01-20_10h50.45.210,AudTraining1,2021.2.3,MacIntel,119.047619,,,,,,,,,,,,,,RegPatterns/15-ms_2_2_1_3_3_1_unit270.mp3,0,2,0,2,0,1,,,,,,,,,,,,,,,,,,
,,,,,,,,,,,,,train53_audtrain1,2024-01-20_10h50.45.210,AudTraining1,2021.2.3,MacIntel,119.047619,,,,,,,,,,,,,,,,,,,,,2,1.8915,1,4,16,5,1,RegPatterns/15-ms_2_2_1_3_3_1_unit270.mp3,RegPatterns/15d-ms_2_2_1_3_1_3_unit270.mp3,,,,,,,,,
,,,,,,,,,,,,,train53_audtrain1,2024-01-20_10h50.45.210,AudTraining1,2021.2.3,MacIntel,119.047619,,,,,,,,,,,,,,RegPatterns/04-ms_4_1_3_3_1_unit230.mp3,0,0,0,0,0,1,,,,,,,,,,,,,,,,,,
,,,,,,,,,,,,,train53_audtrain1,2024-01-20_10h50.45.210,AudTraining1,2021.2.3,MacIntel,119.047619,,,,,,,,,,,,,,RegPatterns/04d-ms_4_3_1_3_1_unit230.mp3,2,1,0,1,0,1,,,,,,,,,,,,,,,,,,
,,,,,,,,,,,,,train53_audtrain1,2024-01-20_10h50.45.210,AudTraining1,2021.2.3,MacIntel,119.047619,,,,,,,,,,,,,,RegPatterns/04-ms_4_1_3_3_1_unit230.mp3,0,2,0,2,0,1,,,,,,,,,,,,,,,,,,
,,,,,,,,,,,,,train53_audtrain1,2024-01-20_10h50.45.210,AudTraining1,2021.2.3,MacIntel,119.047619,,,,,,,,,,,,,,,,,,,,,2,4.4424,1,5,17,0,1,RegPatterns/04-ms_4_1_3_3_1_unit230.mp3,RegPatterns/04d-ms_4_3_1_3_1_unit230.mp3,,,,,,,,,
,,,,,,,,,,,,,train53_audtrain1,2024-01-20_10h50.45.210,AudTraining1,2021.2.3,MacIntel,119.047619,,,,,,,,,,,,,,RegPatterns/17-ms_4_1_1_2_3_1_unit250.mp3,0,0,0,0,0,1,,,,,,,,,,,,,,,,,,
,,,,,,,,,,,,,train53_audtrain1,2024-01-20_10h50.45.210,AudTraining1,2021.2.3,MacIntel,119.047619,,,,,,,,,,,,,,RegPatterns/17d-ms_4_1_1_2_1_3_unit250.mp3,2,1,0,1,0,1,,,,,,,,,,,,,,,,,,
,,,,,,,,,,,,,train53_audtrain1,2024-01-20_10h50.45.210,AudTraining1,2021.2.3,MacIntel,119.047619,,,,,,,,,,,,,,RegPatterns/17-ms_4_1_1_2_3_1_unit250.mp3,0,2,0,2,0,1,,,,,,,,,,,,,,,,,,
,,,,,,,,,,,,,train53_audtrain1,2024-01-20_10h50.45.210,AudTraining1,2021.2.3,MacIntel,119.047619,,,,,,,,,,,,,,,,,,,,,1,5.9444,1,6,18,6,1,RegPatterns/17-ms_4_1_1_2_3_1_unit250.mp3,RegPatterns/17d-ms_4_1_1_2_1_3_unit250.mp3,,,,,,,,,
,,,,,,,,,,,,,train53_audtrain1,2024-01-20_10h50.45.210,AudTraining1,2021.2.3,MacIntel,119.047619,,,,,,,,,,,,,,RegPatterns/07-ms_1_1_2_3_1_4_unit230.mp3,0,0,0,0,0,1,,,,,,,,,,,,,,,,,,
,,,,,,,,,,,,,train53_audtrain1,2024-01-20_10h50.45.210,AudTraining1,2021.2.3,MacIntel,119.047619,,,,,,,,,,,,,,RegPatterns/07d-ms_1_1_2_1_3_4_unit230.mp3,2,1,0,1,0,1,,,,,,,,,,,,,,,,,,
,,,,,,,,,,,,,train53_audtrain1,2024-01-20_10h50.45.210,AudTraining1,2021.2.3,MacIntel,119.047619,,,,,,,,,,,,,,RegPatterns/07-ms_1_1_2_3_1_4_unit230.mp3,0,2,0,2,0,1,,,,,,,,,,,,,,,,,,
,,,,,,,,,,,,,train53_audtrain1,2024-01-20_10h50.45.210,AudTraining1,2021.2.3,MacIntel,119.047619,,,,,,,,,,,,,,,,,,,,,2,1.2601,1,7,19,2,1,RegPatterns/07-ms_1_1_2_3_1_4_unit230.mp3,RegPatterns/07d-ms_1_1_2_1_3_4_unit230.mp3,,,,,,,,,
,,,,,,,,,,,,,train53_audtrain1,2024-01-20_10h50.45.210,AudTraining1,2021.2.3,MacIntel,119.047619,,,,,,,,,,,,,,RegPatterns/27-ms_1_1_2_3_1_1_3_unit270.mp3,0,0,0,0,0,1,,,,,,,,,,,,,,,,,,
,,,,,,,,,,,,,train53_audtrain1,2024-01-20_10h50.45.210,AudTraining1,2021.2.3,MacIntel,119.047619,,,,,,,,,,,,,,RegPatterns/27d-ms_1_1_2_3_1_3_1_unit270.mp3,2,1,0,1,0,1,,,,,,,,,,,,,,,,,,
,,,,,,,,,,,,,train53_audtrain1,2024-01-20_10h50.45.210,AudTraining1,2021.2.3,MacIntel,119.047619,,,,,,,,,,,,,,RegPatterns/27-ms_1_1_2_3_1_1_3_unit270.mp3,0,2,0,2,0,1,,,,,,,,,,,,,,,,,,
,,,,,,,,,,,,,train53_audtrain1,2024-01-20_10h50.45.210,AudTraining1,2021.2.3,MacIntel,119.047619,,,,,,,,,,,,,,,,,,,,,2,1.4713,1,8,20,10,1,RegPatterns/27-ms_1_1_2_3_1_1_3_unit270.mp3,RegPatterns/27d-ms_1_1_2_3_1_3_1_unit270.mp3,,,,,,,,,
,,,,,,,,,,,,,train53_audtrain1,2024-01-20_10h50.45.210,AudTraining1,2021.2.3,MacIntel,119.047619,,,,,,,,,,,,,,RegPatterns/21-ms_2_1_1_3_1_1_3_unit270.mp3,0,0,0,0,0,1,,,,,,,,,,,,,,,,,,
,,,,,,,,,,,,,train53_audtrain1,2024-01-20_10h50.45.210,AudTraining1,2021.2.3,MacIntel,119.047619,,,,,,,,,,,,,,RegPatterns/21-ms_2_1_1_3_1_1_3_unit270.mp3,0,1,0,1,0,1,,,,,,,,,,,,,,,,,,
,,,,,,,,,,,,,train53_audtrain1,2024-01-20_10h50.45.210,AudTraining1,2021.2.3,MacIntel,119.047619,,,,,,,,,,,,,,RegPatterns/21d-ms_2_1_1_3_1_3_1_unit270.mp3,3,2,0,2,0,1,,,,,,,,,,,,,,,,,,
,,,,,,,,,,,,,train53_audtrain1,2024-01-20_10h50.45.210,AudTraining1,2021.2.3,MacIntel,119.047619,,,,,,,,,,,,,,,,,,,,,2,2.026,1,9,21,7,1,RegPatterns/21-ms_2_1_1_3_1_1_3_unit270.mp3,RegPatterns/21d-ms_2_1_1_3_1_3_1_unit270.mp3,,,,,,,,,
,,,,,,,,,,,,,train53_audtrain1,2024-01-20_10h50.45.210,AudTraining1,2021.2.3,MacIntel,119.047619,,,,,,,,,,,,,,RegPatterns/24-ms_4_2_2_1_1_1_1_unit230.mp3,0,0,0,0,0,1,,,,,,,,,,,,,,,,,,
,,,,,,,,,,,,,train53_audtrain1,2024-01-20_10h50.45.210,AudTraining1,2021.2.3,MacIntel,119.047619,,,,,,,,,,,,,,RegPatterns/24d-ms_4_2_1_1_2_1_1_unit230.mp3,2,1,0,1,0,1,,,,,,,,,,,,,,,,,,
,,,,,,,,,,,,,train53_audtrain1,2024-01-20_10h50.45.210,AudTraining1,2021.2.3,MacIntel,119.047619,,,,,,,,,,,,,,RegPatterns/24-ms_4_2_2_1_1_1_1_unit230.mp3,0,2,0,2,0,1,,,,,,,,,,,,,,,,,,
,,,,,,,,,,,,,train53_audtrain1,2024-01-20_10h50.45.210,AudTraining1,2021.2.3,MacIntel,119.047619,,,,,,,,,,,,,,,,,,,,,3,1.7579,1,10,22,9,1,RegPatterns/24-ms_4_2_2_1_1_1_1_unit230.mp3,RegPatterns/24d-ms_4_2_1_1_2_1_1_unit230.mp3,,,,,,,,,
,,,,,,,,,,,,,train53_audtrain1,2024-01-20_10h50.45.210,AudTraining1,2021.2.3,MacIntel,119.047619,,,,,,,,,,,,,,RegPatterns/23-ms_4_1_1_1_1_3_1_unit250.mp3,0,0,0,0,0,1,,,,,,,,,,,,,,,,,,
,,,,,,,,,,,,,train53_audtrain1,2024-01-20_10h50.45.210,AudTraining1,2021.2.3,MacIntel,119.047619,,,,,,,,,,,,,,RegPatterns/23d-ms_4_1_1_1_1_1_3_unit250.mp3,2,1,0,1,0,1,,,,,,,,,,,,,,,,,,
,,,,,,,,,,,,,train53_audtrain1,2024-01-20_10h50.45.210,AudTraining1,2021.2.3,MacIntel,119.047619,,,,,,,,,,,,,,RegPatterns/23-ms_4_1_1_1_1_3_1_unit250.mp3,0,2,0,2,0,1,,,,,,,,,,,,,,,,,,
,,,,,,,,,,,,,train53_audtrain1,2024-01-20_10h50.45.210,AudTraining1,2021.2.3,MacIntel,119.047619,,,,,,,,,,,,,,,,,,,,,1,4.8795,1,11,23,8,1,RegPatterns/23-ms_4_1_1_1_1_3_1_unit250.mp3,RegPatterns/23d-ms_4_1_1_1_1_1_3_unit250.mp3,,,,,,,,,
,,,,,,,,,,,,,train53_audtrain1,2024-01-20_10h50.45.210,AudTraining1,2021.2.3,MacIntel,119.047619,,,,,,,,,,,,,,RegPatterns/24d-ms_4_2_1_1_2_1_1_unit230.mp3,1,0,0,0,0,1,,,,,,,,,,,,,,,,,,
,,,,,,,,,,,,,train53_audtrain1,2024-01-20_10h50.45.210,AudTraining1,2021.2.3,MacIntel,119.047619,,,,,,,,,,,,,,RegPatterns/24-ms_4_2_2_1_1_1_1_unit230.mp3,0,1,0,1,0,1,,,,,,,,,,,,,,,,,,
,,,,,,,,,,,,,train53_audtrain1,2024-01-20_10h50.45.210,AudTraining1,2021.2.3,MacIntel,119.047619,,,,,,,,,,,,,,RegPatterns/24-ms_4_2_2_1_1_1_1_unit230.mp3,0,2,0,2,0,1,,,,,,,,,,,,,,,,,,
,,,,,,,,,,,,,train53_audtrain1,2024-01-20_10h50.45.210,AudTraining1,2021.2.3,MacIntel,119.047619,,,,,,,,,,RegPatterns/Noise.mp3,RegPatterns/Noise.mp3,,,,,,,,,,2,6.5971,,,,,,,,g,0.3395,0,0,0,0,1,,
,,,,,,,,,,,,,train53_audtrain1,2024-01-20_10h50.45.210,AudTraining1,2021.2.3,MacIntel,119.047619,,,,,,,,,,,,,,,,,,,,,,,2,0,24,9,1,RegPatterns/24-ms_4_2_2_1_1_1_1_unit230.mp3,RegPatterns/24d-ms_4_2_1_1_2_1_1_unit230.mp3,,,,,,,,,
,,,,,,,,,,,,,train53_audtrain1,2024-01-20_10h50.45.210,AudTraining1,2021.2.3,MacIntel,119.047619,,,,,,,,,,,,,,RegPatterns/23-ms_4_1_1_1_1_3_1_unit250.mp3,0,0,0,0,0,1,,,,,,,,,,,,,,,,,,
,,,,,,,,,,,,,train53_audtrain1,2024-01-20_10h50.45.210,AudTraining1,2021.2.3,MacIntel,119.047619,,,,,,,,,,,,,,RegPatterns/23-ms_4_1_1_1_1_3_1_unit250.mp3,0,1,0,1,0,1,,,,,,,,,,,,,,,,,,
,,,,,,,,,,,,,train53_audtrain1,2024-01-20_10h50.45.210,AudTraining1,2021.2.3,MacIntel,119.047619,,,,,,,,,,,,,,RegPatterns/23d-ms_4_1_1_1_1_1_3_unit250.mp3,3,2,0,2,0,1,,,,,,,,,,,,,,,,,,
,,,,,,,,,,,,,train53_audtrain1,2024-01-20_10h50.45.210,AudTraining1,2021.2.3,MacIntel,119.047619,,,,,,,,,,,,,,,,,,,,,2,0.5282,2,1,25,8,1,RegPatterns/23-ms_4_1_1_1_1_3_1_unit250.mp3,RegPatterns/23d-ms_4_1_1_1_1_1_3_unit250.mp3,,,,,,,,,
,,,,,,,,,,,,,train53_audtrain1,2024-01-20_10h50.45.210,AudTraining1,2021.2.3,MacIntel,119.047619,,,,,,,,,,,,,,RegPatterns/17-ms_4_1_1_2_3_1_unit250.mp3,0,0,0,0,0,1,,,,,,,,,,,,,,,,,,
,,,,,,,,,,,,,train53_audtrain1,2024-01-20_10h50.45.210,AudTraining1,2021.2.3,MacIntel,119.047619,,,,,,,,,,,,,,RegPatterns/17-ms_4_1_1_2_3_1_unit250.mp3,0,1,0,1,0,1,,,,,,,,,,,,,,,,,,
,,,,,,,,,,,,,train53_audtrain1,2024-01-20_10h50.45.210,AudTraining1,2021.2.3,MacIntel,119.047619,,,,,,,,,,,,,,RegPatterns/17d-ms_4_1_1_2_1_3_unit250.mp3,3,2,0,2,0,1,,,,,,,,,,,,,,,,,,
,,,,,,,,,,,,,train53_audtrain1,2024-01-20_10h50.45.210,AudTraining1,2021.2.3,MacIntel,119.047619,,,,,,,,,,,,,,,,,,,,,3,0.5768,2,2,26,6,1,RegPatterns/17-ms_4_1_1_2_3_1_unit250.mp3,RegPatterns/17d-ms_4_1_1_2_1_3_unit250.mp3,,,,,,,,,
,,,,,,,,,,,,,train53_audtrain1,2024-01-20_10h50.45.210,AudTraining1,2021.2.3,MacIntel,119.047619,,,,,,,,,,,,,,RegPatterns/27-ms_1_1_2_3_1_1_3_unit270.mp3,0,0,0,0,0,1,,,,,,,,,,,,,,,,,,
,,,,,,,,,,,,,train53_audtrain1,2024-01-20_10h50.45.210,AudTraining1,2021.2.3,MacIntel,119.047619,,,,,,,,,,,,,,RegPatterns/27-ms_1_1_2_3_1_1_3_unit270.mp3,0,1,0,1,0,1,,,,,,,,,,,,,,,,,,
,,,,,,,,,,,,,train53_audtrain1,2024-01-20_10h50.45.210,AudTraining1,2021.2.3,MacIntel,119.047619,,,,,,,,,,,,,,RegPatterns/27d-ms_1_1_2_3_1_3_1_unit270.mp3,3,2,0,2,0,1,,,,,,,,,,,,,,,,,,
,,,,,,,,,,,,,train53_audtrain1,2024-01-20_10h50.45.210,AudTraining1,2021.2.3,MacIntel,119.047619,,,,,,,,,,,,,,,,,,,,,2,2.1337,2,3,27,10,1,RegPatterns/27-ms_1_1_2_3_1_1_3_unit270.mp3,RegPatterns/27d-ms_1_1_2_3_1_3_1_unit270.mp3,,,,,,,,,
,,,,,,,,,,,,,train53_audtrain1,2024-01-20_10h50.45.210,AudTraining1,2021.2.3,MacIntel,119.047619,,,,,,,,,,,,,,RegPatterns/04-ms_4_1_3_3_1_unit230.mp3,0,0,0,0,0,1,,,,,,,,,,,,,,,,,,
,,,,,,,,,,,,,train53_audtrain1,2024-01-20_10h50.45.210,AudTraining1,2021.2.3,MacIntel,119.047619,,,,,,,,,,,,,,RegPatterns/04-ms_4_1_3_3_1_unit230.mp3,0,1,0,1,0,1,,,,,,,,,,,,,,,,,,
,,,,,,,,,,,,,train53_audtrain1,2024-01-20_10h50.45.210,AudTraining1,2021.2.3,MacIntel,119.047619,,,,,,,,,,,,,,RegPatterns/04d-ms_4_3_1_3_1_unit230.mp3,3,2,0,2,0,1,,,,,,,,,,,,,,,,,,
,,,,,,,,,,,,,train53_audtrain1,2024-01-20_10h50.45.210,AudTraining1,2021.2.3,MacIntel,119.047619,,,,,,,,,,,,,,,,,,,,,2,0.6507,2,4,28,0,1,RegPatterns/04-ms_4_1_3_3_1_unit230.mp3,RegPatterns/04d-ms_4_3_1_3_1_unit230.mp3,,,,,,,,,
,,,,,,,,,,,,,train53_audtrain1,2024-01-20_10h50.45.210,AudTraining1,2021.2.3,MacIntel,119.047619,,,,,,,,,,,,,,RegPatterns/13-ms_2_1_1_2_2_4_unit230.mp3,0,0,0,0,0,1,,,,,,,,,,,,,,,,,,
,,,,,,,,,,,,,train53_audtrain1,2024-01-20_10h50.45.210,AudTraining1,2021.2.3,MacIntel,119.047619,,,,,,,,,,,,,,RegPatterns/13d-ms_1_1_2_2_2_4_unit230.mp3,2,1,0,1,0,1,,,,,,,,,,,,,,,,,,
,,,,,,,,,,,,,train53_audtrain1,2024-01-20_10h50.45.210,AudTraining1,2021.2.3,MacIntel,119.047619,,,,,,,,,,,,,,RegPatterns/13-ms_2_1_1_2_2_4_unit230.mp3,0,2,0,2,0,1,,,,,,,,,,,,,,,,,,
,,,,,,,,,,,,,train53_audtrain1,2024-01-20_10h50.45.210,AudTraining1,2021.2.3,MacIntel,119.047619,,,,,,,,,,,,,,,,,,,,,1,1.646,2,5,29,4,1,RegPatterns/13-ms_2_1_1_2_2_4_unit230.mp3,RegPatterns/13d-ms_1_1_2_2_2_4_unit230.mp3,,,,,,,,,
,,,,,,,,,,,,,train53_audtrain1,2024-01-20_10h50.45.210,AudTraining1,2021.2.3,MacIntel,119.047619,,,,,,,,,,,,,,RegPatterns/15-ms_2_2_1_3_3_1_unit270.mp3,0,0,0,0,0,1,,,,,,,,,,,,,,,,,,
,,,,,,,,,,,,,train53_audtrain1,2024-01-20_10h50.45.210,AudTraining1,2021.2.3,MacIntel,119.047619,,,,,,,,,,,,,,RegPatterns/15-ms_2_2_1_3_3_1_unit270.mp3,0,1,0,1,0,1,,,,,,,,,,,,,,,,,,
,,,,,,,,,,,,,train53_audtrain1,2024-01-20_10h50.45.210,AudTraining1,2021.2.3,MacIntel,119.047619,,,,,,,,,,,,,,RegPatterns/15d-ms_2_2_1_3_1_3_unit270.mp3,3,2,0,2,0,1,,,,,,,,,,,,,,,,,,
,,,,,,,,,,,,,train53_audtrain1,2024-01-20_10h50.45.210,AudTraining1,2021.2.3,MacIntel,119.047619,,,,,,,,,,,,,,,,,,,,,2,0.5373,2,6,30,5,1,RegPatterns/15-ms_2_2_1_3_3_1_unit270.mp3,RegPatterns/15d-ms_2_2_1_3_1_3_unit270.mp3,,,,,,,,,
,,,,,,,,,,,,,train53_audtrain1,2024-01-20_10h50.45.210,AudTraining1,2021.2.3,MacIntel,119.047619,,,,,,,,,,,,,,RegPatterns/07d-ms_1_1_2_1_3_4_unit230.mp3,1,0,0,0,0,1,,,,,,,,,,,,,,,,,,
,,,,,,,,,,,,,train53_audtrain1,2024-01-20_10h50.45.210,AudTraining1,2021.2.3,MacIntel,119.047619,,,,,,,,,,,,,,RegPatterns/07-ms_1_1_2_3_1_4_unit230.mp3,0,1,0,1,0,1,,,,,,,,,,,,,,,,,,
,,,,,,,,,,,,,train53_audtrain1,2024-01-20_10h50.45.210,AudTraining1,2021.2.3,MacIntel,119.047619,,,,,,,,,,,,,,RegPatterns/07-ms_1_1_2_3_1_4_unit230.mp3,0,2,0,2,0,1,,,,,,,,,,,,,,,,,,
,,,,,,,,,,,,,train53_audtrain1,2024-01-20_10h50.45.210,AudTraining1,2021.2.3,MacIntel,119.047619,,,,,,,,,,,,,,,,,,,,,1,0.5867,2,7,31,2,1,RegPatterns/07-ms_1_1_2_3_1_4_unit230.mp3,RegPatterns/07d-ms_1_1_2_1_3_4_unit230.mp3,,,,,,,,,
,,,,,,,,,,,,,train53_audtrain1,2024-01-20_10h50.45.210,AudTraining1,2021.2.3,MacIntel,119.047619,,,,,,,,,,,,,,RegPatterns/11-ms_2_2_3_1_1_3_unit250.mp3,0,0,0,0,0,1,,,,,,,,,,,,,,,,,,
,,,,,,,,,,,,,train53_audtrain1,2024-01-20_10h50.45.210,AudTraining1,2021.2.3,MacIntel,119.047619,,,,,,,,,,,,,,RegPatterns/11d-ms_2_2_3_1_3_1_unit250.mp3,2,1,0,1,0,1,,,,,,,,,,,,,,,,,,
,,,,,,,,,,,,,train53_audtrain1,2024-01-20_10h50.45.210,AudTraining1,2021.2.3,MacIntel,119.047619,,,,,,,,,,,,,,RegPatterns/11-ms_2_2_3_1_1_3_unit250.mp3,0,2,0,2,0,1,,,,,,,,,,,,,,,,,,
,,,,,,,,,,,,,train53_audtrain1,2024-01-20_10h50.45.210,AudTraining1,2021.2.3,MacIntel,119.047619,,,,,,,,,,,,,,,,,,,,,2,0.5335,2,8,32,3,1,RegPatterns/11-ms_2_2_3_1_1_3_unit250.mp3,RegPatterns/11d-ms_2_2_3_1_3_1_unit250.mp3,,,,,,,,,
,,,,,,,,,,,,,train53_audtrain1,2024-01-20_10h50.45.210,AudTraining1,2021.2.3,MacIntel,119.047619,,,,,,,,,,,,,,RegPatterns/28-ms_2_2_1_1_1_1_4_unit250.mp3,0,0,0,0,0,1,,,,,,,,,,,,,,,,,,
,,,,,,,,,,,,,train53_audtrain1,2024-01-20_10h50.45.210,AudTraining1,2021.2.3,MacIntel,119.047619,,,,,,,,,,,,,,RegPatterns/28-ms_2_2_1_1_1_1_4_unit250.mp3,0,1,0,1,0,1,,,,,,,,,,,,,,,,,,
,,,,,,,,,,,,,train53_audtrain1,2024-01-20_10h50.45.210,AudTraining1,2021.2.3,MacIntel,119.047619,,,,,,,,,,,,,,RegPatterns/28d-ms_2_1_1_2_1_1_4_unit250.mp3,3,2,0,2,0,1,,,,,,,,,,,,,,,,,,
,,,,,,,,,,,,,train53_audtrain1,2024-01-20_10h50.45.210,AudTraining1,2021.2.3,MacIntel,119.047619,,,,,,,,,,,,,,,,,,,,,2,0.4468,2,9,33,11,1,RegPatterns/28-ms_2_2_1_1_1_1_4_unit250.mp3,RegPatterns/28d-ms_2_1_1_2_1_1_4_unit250.mp3,,,,,,,,,
,,,,,,,,,,,,,train53_audtrain1,2024-01-20_10h50.45.210,AudTraining1,2021.2.3,MacIntel,119.047619,,,,,,,,,,,,,,RegPatterns/21d-ms_2_1_1_3_1_3_1_unit270.mp3,1,0,0,0,0,1,,,,,,,,,,,,,,,,,,
,,,,,,,,,,,,,train53_audtrain1,2024-01-20_10h50.45.210,AudTraining1,2021.2.3,MacIntel,119.047619,,,,,,,,,,,,,,RegPatterns/21-ms_2_1_1_3_1_1_3_unit270.mp3,0,1,0,1,0,1,,,,,,,,,,,,,,,,,,
,,,,,,,,,,,,,train53_audtrain1,2024-01-20_10h50.45.210,AudTraining1,2021.2.3,MacIntel,119.047619,,,,,,,,,,,,,,RegPatterns/21-ms_2_1_1_3_1_1_3_unit270.mp3,0,2,0,2,0,1,,,,,,,,,,,,,,,,,,
,,,,,,,,,,,,,train53_audtrain1,2024-01-20_10h50.45.210,AudTraining1,2021.2.3,MacIntel,119.047619,,,,,,,,,,,,,,,,,,,,,3,0.5294,2,10,34,7,1,RegPatterns/21-ms_2_1_1_3_1_1_3_unit270.mp3,RegPatterns/21d-ms_2_1_1_3_1_3_1_unit270.mp3,,,,,,,,,
,,,,,,,,,,,,,train53_audtrain1,2024-01-20_10h50.45.210,AudTraining1,2021.2.3,MacIntel,119.047619,,,,,,,,,,,,,,RegPatterns/06-ms_4_3_1_2_2_unit270.mp3,0,0,0,0,0,1,,,,,,,,,,,,,,,,,,
,,,,,,,,,,,,,train53_audtrain1,2024-01-20_10h50.45.210,AudTraining1,2021.2.3,MacIntel,119.047619,,,,,,,,,,,,,,RegPatterns/06d-ms_4_1_3_2_2_unit270.mp3,2,1,0,1,0,1,,,,,,,,,,,,,,,,,,
,,,,,,,,,,,,,train53_audtrain1,2024-01-20_10h50.45.210,AudTraining1,2021.2.3,MacIntel,119.047619,,,,,,,,,,,,,,RegPatterns/06-ms_4_3_1_2_2_unit270.mp3,0,2,0,2,0,1,,,,,,,,,,,,,,,,,,
,,,,,,,,,,,,,train53_audtrain1,2024-01-20_10h50.45.210,AudTraining1,2021.2.3,MacIntel,119.047619,,,,,,,,,,,,,,,,,,,,,2,2.0054,2,11,35,1,1,RegPatterns/06-ms_4_3_1_2_2_unit270.mp3,RegPatterns/06d-ms_4_1_3_2_2_unit270.mp3,,,,,,,,,
,,,,,,,,,,,,,train53_audtrain1,2024-01-20_10h50.45.210,AudTraining1,2021.2.3,MacIntel,119.047619,,,,,,,,,,,,,,,,,,,,,,,,,,,,,,,,,,,,,space,5.0843
