key_resp.keys,key_resp.rt,key_resp_2.keys,key_resp_2.rt,key_resp_3.keys,key_resp_3.rt,trials.thisRepN,trials.thisTrialN,trials.thisN,trials.thisIndex,trials.ran,volstandard,voldeviant,participant,date,expName,psychopyVersion,OS,frameRate,key_resp_4.keys,key_resp_4.rt,key_resp_5.keys,key_resp_5.rt,trials_2.thisRepN,trials_2.thisTrialN,trials_2.thisN,trials_2.thisIndex,trials_2.ran,RegStandardPitch,RegDeviantPitch,key_resp_6.keys,key_resp_6.rt,RegAudSequence,diff-reg,trials_3.thisRepN,trials_3.thisTrialN,trials_3.thisN,trials_3.thisIndex,trials_3.ran,key_resp_7.keys,key_resp_7.rt,trials_5.thisRepN,trials_5.thisTrialN,trials_5.thisN,trials_5.thisIndex,trials_5.ran,standard,devient,key_resp_8.keys,key_resp_8.rt,trials_4.thisRepN,trials_4.thisTrialN,trials_4.thisN,trials_4.thisIndex,trials_4.ran,key_resp_9.keys,key_resp_9.rt
space,5.1131,space,1.6741,space,1.783,0,0,0,0,1,RegPatterns/01-ms_2_2_4_1_3_unit230.mp3,RegPatterns/01d-ms_2_2_4_3_1_unit230.mp3,train3_audtrain2,2023-11-10_11h26.00.244,AudTraining2,2021.2.3,Win32,59.47778505,,,,,,,,,,,,,,,,,,,,,,,,,,,,,,,,,,,,,,
,,,,,,,,,,,,,train3_audtrain2,2023-11-10_11h26.00.244,AudTraining2,2021.2.3,Win32,59.47778505,space,2.6757,g,0.8887,0,0,0,0,1,RegPatterns/Noise.mp3,RegPatterns/Noise.mp3,,,,,,,,,,,,,,,,,,,,,,,,,,,
,,,,,,,,,,,,,train3_audtrain2,2023-11-10_11h26.00.244,AudTraining2,2021.2.3,Win32,59.47778505,,,,,,,,,,,,space,59.4599,RegPatterns/09-ms_2_1_1_1_3_4_unit270.mp3,0,0,0,0,0,1,,,,,,,,,,,,,,,,,,
,,,,,,,,,,,,,train3_audtrain2,2023-11-10_11h26.00.244,AudTraining2,2021.2.3,Win32,59.47778505,,,,,,,,,,,,,,RegPatterns/09-ms_2_1_1_1_3_4_unit270.mp3,0,1,0,1,0,1,,,,,,,,,,,,,,,,,,
,,,,,,,,,,,,,train3_audtrain2,2023-11-10_11h26.00.244,AudTraining2,2021.2.3,Win32,59.47778505,,,,,,,,,,,,,,RegPatterns/09d-ms_2_1_1_3_1_4_unit270.mp3,3,2,0,2,0,1,,,,,,,,,,,,,,,,,,
,,,,,,,,,,,,,train3_audtrain2,2023-11-10_11h26.00.244,AudTraining2,2021.2.3,Win32,59.47778505,,,,,,,,,,,,,,,,,,,,,3,2.2291,0,0,0,2,1,RegPatterns/09-ms_2_1_1_1_3_4_unit270.mp3,RegPatterns/09d-ms_2_1_1_3_1_4_unit270.mp3,,,,,,,,,
,,,,,,,,,,,,,train3_audtrain2,2023-11-10_11h26.00.244,AudTraining2,2021.2.3,Win32,59.47778505,,,,,,,,,,,,,,RegPatterns/14d-ms_2_1_1_4_3_1_unit250.mp3,1,0,0,0,0,1,,,,,,,,,,,,,,,,,,
,,,,,,,,,,,,,train3_audtrain2,2023-11-10_11h26.00.244,AudTraining2,2021.2.3,Win32,59.47778505,,,,,,,,,,,,,,RegPatterns/14-ms_2_1_1_4_1_3_unit250.mp3,0,1,0,1,0,1,,,,,,,,,,,,,,,,,,
,,,,,,,,,,,,,train3_audtrain2,2023-11-10_11h26.00.244,AudTraining2,2021.2.3,Win32,59.47778505,,,,,,,,,,,,,,RegPatterns/14-ms_2_1_1_4_1_3_unit250.mp3,0,2,0,2,0,1,,,,,,,,,,,,,,,,,,
,,,,,,,,,,,,,train3_audtrain2,2023-11-10_11h26.00.244,AudTraining2,2021.2.3,Win32,59.47778505,,,,,,,,,,,,,,,,,,,,,2,0.385,0,1,1,4,1,RegPatterns/14-ms_2_1_1_4_1_3_unit250.mp3,RegPatterns/14d-ms_2_1_1_4_3_1_unit250.mp3,,,,,,,,,
,,,,,,,,,,,,,train3_audtrain2,2023-11-10_11h26.00.244,AudTraining2,2021.2.3,Win32,59.47778505,,,,,,,,,,,,,,RegPatterns/29-ms_3_1_2_1_1_1_3_unit250.mp3,0,0,0,0,0,1,,,,,,,,,,,,,,,,,,
,,,,,,,,,,,,,train3_audtrain2,2023-11-10_11h26.00.244,AudTraining2,2021.2.3,Win32,59.47778505,,,,,,,,,,,,,,RegPatterns/29d-ms_3_1_2_1_1_3_1_unit250.mp3,2,1,0,1,0,1,,,,,,,,,,,,,,,,,,
,,,,,,,,,,,,,train3_audtrain2,2023-11-10_11h26.00.244,AudTraining2,2021.2.3,Win32,59.47778505,,,,,,,,,,,,,,RegPatterns/29-ms_3_1_2_1_1_1_3_unit250.mp3,0,2,0,2,0,1,,,,,,,,,,,,,,,,,,
,,,,,,,,,,,,,train3_audtrain2,2023-11-10_11h26.00.244,AudTraining2,2021.2.3,Win32,59.47778505,,,,,,,,,,,,,,,,,,,,,3,80.7378,0,2,2,9,1,RegPatterns/29-ms_3_1_2_1_1_1_3_unit250.mp3,RegPatterns/29d-ms_3_1_2_1_1_3_1_unit250.mp3,,,,,,,,,
,,,,,,,,,,,,,train3_audtrain2,2023-11-10_11h26.00.244,AudTraining2,2021.2.3,Win32,59.47778505,,,,,,,,,,,,,,RegPatterns/02-ms_3_1_4_1_3_unit250.mp3,0,0,0,0,0,1,,,,,,,,,,,,,,,,,,
,,,,,,,,,,,,,train3_audtrain2,2023-11-10_11h26.00.244,AudTraining2,2021.2.3,Win32,59.47778505,,,,,,,,,,,,,,RegPatterns/02-ms_3_1_4_1_3_unit250.mp3,0,1,0,1,0,1,,,,,,,,,,,,,,,,,,
,,,,,,,,,,,,,train3_audtrain2,2023-11-10_11h26.00.244,AudTraining2,2021.2.3,Win32,59.47778505,,,,,,,,,,,,,,RegPatterns/02d-ms_3_1_4_3_1_unit250.mp3,3,2,0,2,0,1,,,,,,,,,,,,,,,,,,
,,,,,,,,,,,,,train3_audtrain2,2023-11-10_11h26.00.244,AudTraining2,2021.2.3,Win32,59.47778505,,,,,,,,,,,,,,,,,,,,,2,0.72,0,3,3,0,1,RegPatterns/02-ms_3_1_4_1_3_unit250.mp3,RegPatterns/02d-ms_3_1_4_3_1_unit250.mp3,,,,,,,,,
,,,,,,,,,,,,,train3_audtrain2,2023-11-10_11h26.00.244,AudTraining2,2021.2.3,Win32,59.47778505,,,,,,,,,,,,,,RegPatterns/20d-ms_2_1_1_2_2_1_3_unit230.mp3,1,0,0,0,0,1,,,,,,,,,,,,,,,,,,
,,,,,,,,,,,,,train3_audtrain2,2023-11-10_11h26.00.244,AudTraining2,2021.2.3,Win32,59.47778505,,,,,,,,,,,,,,RegPatterns/20-ms_2_1_1_2_2_3_1_unit230.mp3,0,1,0,1,0,1,,,,,,,,,,,,,,,,,,
,,,,,,,,,,,,,train3_audtrain2,2023-11-10_11h26.00.244,AudTraining2,2021.2.3,Win32,59.47778505,,,,,,,,,,,,,,RegPatterns/20-ms_2_1_1_2_2_3_1_unit230.mp3,0,2,0,2,0,1,,,,,,,,,,,,,,,,,,
,,,,,,,,,,,,,train3_audtrain2,2023-11-10_11h26.00.244,AudTraining2,2021.2.3,Win32,59.47778505,,,,,,,,,,,,,,,,,,,,,1,0.3507,0,4,4,11,1,RegPatterns/20-ms_2_1_1_2_2_3_1_unit230.mp3,RegPatterns/20d-ms_2_1_1_2_2_1_3_unit230.mp3,,,,,,,,,
,,,,,,,,,,,,,train3_audtrain2,2023-11-10_11h26.00.244,AudTraining2,2021.2.3,Win32,59.47778505,,,,,,,,,,,,,,RegPatterns/03-ms_3_1_4_2_2_unit270.mp3,0,0,0,0,0,1,,,,,,,,,,,,,,,,,,
,,,,,,,,,,,,,train3_audtrain2,2023-11-10_11h26.00.244,AudTraining2,2021.2.3,Win32,59.47778505,,,,,,,,,,,,,,RegPatterns/03d-ms_1_3_4_2_2_unit270.mp3,2,1,0,1,0,1,,,,,,,,,,,,,,,,,,
,,,,,,,,,,,,,train3_audtrain2,2023-11-10_11h26.00.244,AudTraining2,2021.2.3,Win32,59.47778505,,,,,,,,,,,,,,RegPatterns/03-ms_3_1_4_2_2_unit270.mp3,0,2,0,2,0,1,,,,,,,,,,,,,,,,,,
,,,,,,,,,,,,,train3_audtrain2,2023-11-10_11h26.00.244,AudTraining2,2021.2.3,Win32,59.47778505,,,,,,,,,,,,,,,,,,,,,2,0.2343,0,5,5,1,1,RegPatterns/03-ms_3_1_4_2_2_unit270.mp3,RegPatterns/03d-ms_1_3_4_2_2_unit270.mp3,,,,,,,,,
,,,,,,,,,,,,,train3_audtrain2,2023-11-10_11h26.00.244,AudTraining2,2021.2.3,Win32,59.47778505,,,,,,,,,,,,,,RegPatterns/12-ms_3_1_1_3_2_2_unit270.mp3,0,0,0,0,0,1,,,,,,,,,,,,,,,,,,
,,,,,,,,,,,,,train3_audtrain2,2023-11-10_11h26.00.244,AudTraining2,2021.2.3,Win32,59.47778505,,,,,,,,,,,,,,RegPatterns/12-ms_3_1_1_3_2_2_unit270.mp3,0,1,0,1,0,1,,,,,,,,,,,,,,,,,,
,,,,,,,,,,,,,train3_audtrain2,2023-11-10_11h26.00.244,AudTraining2,2021.2.3,Win32,59.47778505,,,,,,,,,,,,,,RegPatterns/12d-ms_3_1_3_1_2_2_unit270.mp3,3,2,0,2,0,1,,,,,,,,,,,,,,,,,,
,,,,,,,,,,,,,train3_audtrain2,2023-11-10_11h26.00.244,AudTraining2,2021.2.3,Win32,59.47778505,,,,,,,,,,,,,,,,,,,,,3,0.1768,0,6,6,3,1,RegPatterns/12-ms_3_1_1_3_2_2_unit270.mp3,RegPatterns/12d-ms_3_1_3_1_2_2_unit270.mp3,,,,,,,,,
,,,,,,,,,,,,,train3_audtrain2,2023-11-10_11h26.00.244,AudTraining2,2021.2.3,Win32,59.47778505,,,,,,,,,,,,,,RegPatterns/19d-ms_1_1_2_1_3_2_2_unit230.mp3,1,0,0,0,0,1,,,,,,,,,,,,,,,,,,
,,,,,,,,,,,,,train3_audtrain2,2023-11-10_11h26.00.244,AudTraining2,2021.2.3,Win32,59.47778505,,,,,,,,,,,,,,RegPatterns/19-ms_1_1_2_3_1_2_2_unit230.mp3,0,1,0,1,0,1,,,,,,,,,,,,,,,,,,
,,,,,,,,,,,,,train3_audtrain2,2023-11-10_11h26.00.244,AudTraining2,2021.2.3,Win32,59.47778505,,,,,,,,,,,,,,RegPatterns/19-ms_1_1_2_3_1_2_2_unit230.mp3,0,2,0,2,0,1,,,,,,,,,,,,,,,,,,
,,,,,,,,,,,,,train3_audtrain2,2023-11-10_11h26.00.244,AudTraining2,2021.2.3,Win32,59.47778505,,,,,,,,,,,,,,,,,,,,,1,0.3925,0,7,7,7,1,RegPatterns/19-ms_1_1_2_3_1_2_2_unit230.mp3,RegPatterns/19d-ms_1_1_2_1_3_2_2_unit230.mp3,,,,,,,,,
,,,,,,,,,,,,,train3_audtrain2,2023-11-10_11h26.00.244,AudTraining2,2021.2.3,Win32,59.47778505,,,,,,,,,,,,,,RegPatterns/16d-ms_3_1_2_2_3_1_unit230.mp3,1,0,0,0,0,1,,,,,,,,,,,,,,,,,,
,,,,,,,,,,,,,train3_audtrain2,2023-11-10_11h26.00.244,AudTraining2,2021.2.3,Win32,59.47778505,,,,,,,,,,,,,,RegPatterns/16-ms_3_1_2_2_1_3_unit230.mp3,0,1,0,1,0,1,,,,,,,,,,,,,,,,,,
,,,,,,,,,,,,,train3_audtrain2,2023-11-10_11h26.00.244,AudTraining2,2021.2.3,Win32,59.47778505,,,,,,,,,,,,,,RegPatterns/16-ms_3_1_2_2_1_3_unit230.mp3,0,2,0,2,0,1,,,,,,,,,,,,,,,,,,
,,,,,,,,,,,,,train3_audtrain2,2023-11-10_11h26.00.244,AudTraining2,2021.2.3,Win32,59.47778505,,,,,,,,,,,,,,,,,,,,,1,0.3718,0,8,8,5,1,RegPatterns/16-ms_3_1_2_2_1_3_unit230.mp3,RegPatterns/16d-ms_3_1_2_2_3_1_unit230.mp3,,,,,,,,,
,,,,,,,,,,,,,train3_audtrain2,2023-11-10_11h26.00.244,AudTraining2,2021.2.3,Win32,59.47778505,,,,,,,,,,,,,,RegPatterns/30d-ms_1_3_2_2_1_1_2_unit230.mp3,1,0,0,0,0,1,,,,,,,,,,,,,,,,,,
,,,,,,,,,,,,,train3_audtrain2,2023-11-10_11h26.00.244,AudTraining2,2021.2.3,Win32,59.47778505,,,,,,,,,,,,,,RegPatterns/30-ms_3_1_2_2_1_1_2_unit230.mp3,0,1,0,1,0,1,,,,,,,,,,,,,,,,,,
,,,,,,,,,,,,,train3_audtrain2,2023-11-10_11h26.00.244,AudTraining2,2021.2.3,Win32,59.47778505,,,,,,,,,,,,,,RegPatterns/30-ms_3_1_2_2_1_1_2_unit230.mp3,0,2,0,2,0,1,,,,,,,,,,,,,,,,,,
,,,,,,,,,,,,,train3_audtrain2,2023-11-10_11h26.00.244,AudTraining2,2021.2.3,Win32,59.47778505,,,,,,,,,,,,,,,,,,,,,1,0.6083,0,9,9,10,1,RegPatterns/30-ms_3_1_2_2_1_1_2_unit230.mp3,RegPatterns/30d-ms_1_3_2_2_1_1_2_unit230.mp3,,,,,,,,,
,,,,,,,,,,,,,train3_audtrain2,2023-11-10_11h26.00.244,AudTraining2,2021.2.3,Win32,59.47778505,,,,,,,,,,,,,,RegPatterns/26-ms_1_1_2_2_1_1_4_unit250.mp3,0,0,0,0,0,1,,,,,,,,,,,,,,,,,,
,,,,,,,,,,,,,train3_audtrain2,2023-11-10_11h26.00.244,AudTraining2,2021.2.3,Win32,59.47778505,,,,,,,,,,,,,,RegPatterns/26-ms_1_1_2_2_1_1_4_unit250.mp3,0,1,0,1,0,1,,,,,,,,,,,,,,,,,,
,,,,,,,,,,,,,train3_audtrain2,2023-11-10_11h26.00.244,AudTraining2,2021.2.3,Win32,59.47778505,,,,,,,,,,,,,,RegPatterns/26d-ms_1_1_2_1_1_2_4_unit250.mp3,3,2,0,2,0,1,,,,,,,,,,,,,,,,,,
,,,,,,,,,,,,,train3_audtrain2,2023-11-10_11h26.00.244,AudTraining2,2021.2.3,Win32,59.47778505,,,,,,,,,,,,,,,,,,,,,3,0.2735,0,10,10,8,1,RegPatterns/26-ms_1_1_2_2_1_1_4_unit250.mp3,RegPatterns/26d-ms_1_1_2_1_1_2_4_unit250.mp3,,,,,,,,,
,,,,,,,,,,,,,train3_audtrain2,2023-11-10_11h26.00.244,AudTraining2,2021.2.3,Win32,59.47778505,,,,,,,,,,,,,,RegPatterns/18-ms_4_2_2_1_1_2_unit270.mp3,0,0,0,0,0,1,,,,,,,,,,,,,,,,,,
,,,,,,,,,,,,,train3_audtrain2,2023-11-10_11h26.00.244,AudTraining2,2021.2.3,Win32,59.47778505,,,,,,,,,,,,,,RegPatterns/18-ms_4_2_2_1_1_2_unit270.mp3,0,1,0,1,0,1,,,,,,,,,,,,,,,,,,
,,,,,,,,,,,,,train3_audtrain2,2023-11-10_11h26.00.244,AudTraining2,2021.2.3,Win32,59.47778505,,,,,,,,,,,,,,RegPatterns/18d-ms_4_2_2_2_1_1_unit270.mp3,3,2,0,2,0,1,,,,,,,,,,,,,,,,,,
,,,,,,,,,,,,,train3_audtrain2,2023-11-10_11h26.00.244,AudTraining2,2021.2.3,Win32,59.47778505,,,,,,,,,,RegPatterns/Noise.mp3,RegPatterns/Noise.mp3,,,,,,,,,,3,0.3714,,,,,,,,g,1.5469,0,0,0,0,1,,
,,,,,,,,,,,,,train3_audtrain2,2023-11-10_11h26.00.244,AudTraining2,2021.2.3,Win32,59.47778505,,,,,,,,,,,,,,,,,,,,,,,0,11,11,6,1,RegPatterns/18-ms_4_2_2_1_1_2_unit270.mp3,RegPatterns/18d-ms_4_2_2_2_1_1_unit270.mp3,,,,,,,,,
,,,,,,,,,,,,,train3_audtrain2,2023-11-10_11h26.00.244,AudTraining2,2021.2.3,Win32,59.47778505,,,,,,,,,,,,,,RegPatterns/30-ms_3_1_2_2_1_1_2_unit230.mp3,0,0,0,0,0,1,,,,,,,,,,,,,,,,,,
,,,,,,,,,,,,,train3_audtrain2,2023-11-10_11h26.00.244,AudTraining2,2021.2.3,Win32,59.47778505,,,,,,,,,,,,,,RegPatterns/30-ms_3_1_2_2_1_1_2_unit230.mp3,0,1,0,1,0,1,,,,,,,,,,,,,,,,,,
,,,,,,,,,,,,,train3_audtrain2,2023-11-10_11h26.00.244,AudTraining2,2021.2.3,Win32,59.47778505,,,,,,,,,,,,,,RegPatterns/30d-ms_1_3_2_2_1_1_2_unit230.mp3,3,2,0,2,0,1,,,,,,,,,,,,,,,,,,
,,,,,,,,,,,,,train3_audtrain2,2023-11-10_11h26.00.244,AudTraining2,2021.2.3,Win32,59.47778505,,,,,,,,,,,,,,,,,,,,,3,1.7617,1,0,12,10,1,RegPatterns/30-ms_3_1_2_2_1_1_2_unit230.mp3,RegPatterns/30d-ms_1_3_2_2_1_1_2_unit230.mp3,,,,,,,,,
,,,,,,,,,,,,,train3_audtrain2,2023-11-10_11h26.00.244,AudTraining2,2021.2.3,Win32,59.47778505,,,,,,,,,,,,,,RegPatterns/12d-ms_3_1_3_1_2_2_unit270.mp3,1,0,0,0,0,1,,,,,,,,,,,,,,,,,,
,,,,,,,,,,,,,train3_audtrain2,2023-11-10_11h26.00.244,AudTraining2,2021.2.3,Win32,59.47778505,,,,,,,,,,,,,,RegPatterns/12-ms_3_1_1_3_2_2_unit270.mp3,0,1,0,1,0,1,,,,,,,,,,,,,,,,,,
,,,,,,,,,,,,,train3_audtrain2,2023-11-10_11h26.00.244,AudTraining2,2021.2.3,Win32,59.47778505,,,,,,,,,,,,,,RegPatterns/12-ms_3_1_1_3_2_2_unit270.mp3,0,2,0,2,0,1,,,,,,,,,,,,,,,,,,
,,,,,,,,,,,,,train3_audtrain2,2023-11-10_11h26.00.244,AudTraining2,2021.2.3,Win32,59.47778505,,,,,,,,,,,,,,,,,,,,,1,1.9218,1,1,13,3,1,RegPatterns/12-ms_3_1_1_3_2_2_unit270.mp3,RegPatterns/12d-ms_3_1_3_1_2_2_unit270.mp3,,,,,,,,,
,,,,,,,,,,,,,train3_audtrain2,2023-11-10_11h26.00.244,AudTraining2,2021.2.3,Win32,59.47778505,,,,,,,,,,,,,,RegPatterns/26d-ms_1_1_2_1_1_2_4_unit250.mp3,1,0,0,0,0,1,,,,,,,,,,,,,,,,,,
,,,,,,,,,,,,,train3_audtrain2,2023-11-10_11h26.00.244,AudTraining2,2021.2.3,Win32,59.47778505,,,,,,,,,,,,,,RegPatterns/26-ms_1_1_2_2_1_1_4_unit250.mp3,0,1,0,1,0,1,,,,,,,,,,,,,,,,,,
,,,,,,,,,,,,,train3_audtrain2,2023-11-10_11h26.00.244,AudTraining2,2021.2.3,Win32,59.47778505,,,,,,,,,,,,,,RegPatterns/26-ms_1_1_2_2_1_1_4_unit250.mp3,0,2,0,2,0,1,,,,,,,,,,,,,,,,,,
,,,,,,,,,,,,,train3_audtrain2,2023-11-10_11h26.00.244,AudTraining2,2021.2.3,Win32,59.47778505,,,,,,,,,,,,,,,,,,,,,1,0.2914,1,2,14,8,1,RegPatterns/26-ms_1_1_2_2_1_1_4_unit250.mp3,RegPatterns/26d-ms_1_1_2_1_1_2_4_unit250.mp3,,,,,,,,,
,,,,,,,,,,,,,train3_audtrain2,2023-11-10_11h26.00.244,AudTraining2,2021.2.3,Win32,59.47778505,,,,,,,,,,,,,,RegPatterns/29-ms_3_1_2_1_1_1_3_unit250.mp3,0,0,0,0,0,1,,,,,,,,,,,,,,,,,,
,,,,,,,,,,,,,train3_audtrain2,2023-11-10_11h26.00.244,AudTraining2,2021.2.3,Win32,59.47778505,,,,,,,,,,,,,,RegPatterns/29-ms_3_1_2_1_1_1_3_unit250.mp3,0,1,0,1,0,1,,,,,,,,,,,,,,,,,,
,,,,,,,,,,,,,train3_audtrain2,2023-11-10_11h26.00.244,AudTraining2,2021.2.3,Win32,59.47778505,,,,,,,,,,,,,,RegPatterns/29d-ms_3_1_2_1_1_3_1_unit250.mp3,3,2,0,2,0,1,,,,,,,,,,,,,,,,,,
,,,,,,,,,,,,,train3_audtrain2,2023-11-10_11h26.00.244,AudTraining2,2021.2.3,Win32,59.47778505,,,,,,,,,,,,,,,,,,,,,3,1.2174,1,3,15,9,1,RegPatterns/29-ms_3_1_2_1_1_1_3_unit250.mp3,RegPatterns/29d-ms_3_1_2_1_1_3_1_unit250.mp3,,,,,,,,,
,,,,,,,,,,,,,train3_audtrain2,2023-11-10_11h26.00.244,AudTraining2,2021.2.3,Win32,59.47778505,,,,,,,,,,,,,,RegPatterns/20-ms_2_1_1_2_2_3_1_unit230.mp3,0,0,0,0,0,1,,,,,,,,,,,,,,,,,,
,,,,,,,,,,,,,train3_audtrain2,2023-11-10_11h26.00.244,AudTraining2,2021.2.3,Win32,59.47778505,,,,,,,,,,,,,,RegPatterns/20d-ms_2_1_1_2_2_1_3_unit230.mp3,2,1,0,1,0,1,,,,,,,,,,,,,,,,,,
,,,,,,,,,,,,,train3_audtrain2,2023-11-10_11h26.00.244,AudTraining2,2021.2.3,Win32,59.47778505,,,,,,,,,,,,,,RegPatterns/20-ms_2_1_1_2_2_3_1_unit230.mp3,0,2,0,2,0,1,,,,,,,,,,,,,,,,,,
,,,,,,,,,,,,,train3_audtrain2,2023-11-10_11h26.00.244,AudTraining2,2021.2.3,Win32,59.47778505,,,,,,,,,,,,,,,,,,,,,1,1.2345,1,4,16,11,1,RegPatterns/20-ms_2_1_1_2_2_3_1_unit230.mp3,RegPatterns/20d-ms_2_1_1_2_2_1_3_unit230.mp3,,,,,,,,,
,,,,,,,,,,,,,train3_audtrain2,2023-11-10_11h26.00.244,AudTraining2,2021.2.3,Win32,59.47778505,,,,,,,,,,,,,,RegPatterns/19-ms_1_1_2_3_1_2_2_unit230.mp3,0,0,0,0,0,1,,,,,,,,,,,,,,,,,,
,,,,,,,,,,,,,train3_audtrain2,2023-11-10_11h26.00.244,AudTraining2,2021.2.3,Win32,59.47778505,,,,,,,,,,,,,,RegPatterns/19-ms_1_1_2_3_1_2_2_unit230.mp3,0,1,0,1,0,1,,,,,,,,,,,,,,,,,,
,,,,,,,,,,,,,train3_audtrain2,2023-11-10_11h26.00.244,AudTraining2,2021.2.3,Win32,59.47778505,,,,,,,,,,,,,,RegPatterns/19d-ms_1_1_2_1_3_2_2_unit230.mp3,3,2,0,2,0,1,,,,,,,,,,,,,,,,,,
,,,,,,,,,,,,,train3_audtrain2,2023-11-10_11h26.00.244,AudTraining2,2021.2.3,Win32,59.47778505,,,,,,,,,,,,,,,,,,,,,3,13.9867,1,5,17,7,1,RegPatterns/19-ms_1_1_2_3_1_2_2_unit230.mp3,RegPatterns/19d-ms_1_1_2_1_3_2_2_unit230.mp3,,,,,,,,,
,,,,,,,,,,,,,train3_audtrain2,2023-11-10_11h26.00.244,AudTraining2,2021.2.3,Win32,59.47778505,,,,,,,,,,,,,,RegPatterns/18d-ms_4_2_2_2_1_1_unit270.mp3,1,0,0,0,0,1,,,,,,,,,,,,,,,,,,
,,,,,,,,,,,,,train3_audtrain2,2023-11-10_11h26.00.244,AudTraining2,2021.2.3,Win32,59.47778505,,,,,,,,,,,,,,RegPatterns/18-ms_4_2_2_1_1_2_unit270.mp3,0,1,0,1,0,1,,,,,,,,,,,,,,,,,,
,,,,,,,,,,,,,train3_audtrain2,2023-11-10_11h26.00.244,AudTraining2,2021.2.3,Win32,59.47778505,,,,,,,,,,,,,,RegPatterns/18-ms_4_2_2_1_1_2_unit270.mp3,0,2,0,2,0,1,,,,,,,,,,,,,,,,,,
,,,,,,,,,,,,,train3_audtrain2,2023-11-10_11h26.00.244,AudTraining2,2021.2.3,Win32,59.47778505,,,,,,,,,,,,,,,,,,,,,1,0.403,1,6,18,6,1,RegPatterns/18-ms_4_2_2_1_1_2_unit270.mp3,RegPatterns/18d-ms_4_2_2_2_1_1_unit270.mp3,,,,,,,,,
,,,,,,,,,,,,,train3_audtrain2,2023-11-10_11h26.00.244,AudTraining2,2021.2.3,Win32,59.47778505,,,,,,,,,,,,,,RegPatterns/02-ms_3_1_4_1_3_unit250.mp3,0,0,0,0,0,1,,,,,,,,,,,,,,,,,,
,,,,,,,,,,,,,train3_audtrain2,2023-11-10_11h26.00.244,AudTraining2,2021.2.3,Win32,59.47778505,,,,,,,,,,,,,,RegPatterns/02d-ms_3_1_4_3_1_unit250.mp3,2,1,0,1,0,1,,,,,,,,,,,,,,,,,,
,,,,,,,,,,,,,train3_audtrain2,2023-11-10_11h26.00.244,AudTraining2,2021.2.3,Win32,59.47778505,,,,,,,,,,,,,,RegPatterns/02-ms_3_1_4_1_3_unit250.mp3,0,2,0,2,0,1,,,,,,,,,,,,,,,,,,
,,,,,,,,,,,,,train3_audtrain2,2023-11-10_11h26.00.244,AudTraining2,2021.2.3,Win32,59.47778505,,,,,,,,,,,,,,,,,,,,,1,0.3009,1,7,19,0,1,RegPatterns/02-ms_3_1_4_1_3_unit250.mp3,RegPatterns/02d-ms_3_1_4_3_1_unit250.mp3,,,,,,,,,
,,,,,,,,,,,,,train3_audtrain2,2023-11-10_11h26.00.244,AudTraining2,2021.2.3,Win32,59.47778505,,,,,,,,,,,,,,RegPatterns/09d-ms_2_1_1_3_1_4_unit270.mp3,1,0,0,0,0,1,,,,,,,,,,,,,,,,,,
,,,,,,,,,,,,,train3_audtrain2,2023-11-10_11h26.00.244,AudTraining2,2021.2.3,Win32,59.47778505,,,,,,,,,,,,,,RegPatterns/09-ms_2_1_1_1_3_4_unit270.mp3,0,1,0,1,0,1,,,,,,,,,,,,,,,,,,
,,,,,,,,,,,,,train3_audtrain2,2023-11-10_11h26.00.244,AudTraining2,2021.2.3,Win32,59.47778505,,,,,,,,,,,,,,RegPatterns/09-ms_2_1_1_1_3_4_unit270.mp3,0,2,0,2,0,1,,,,,,,,,,,,,,,,,,
,,,,,,,,,,,,,train3_audtrain2,2023-11-10_11h26.00.244,AudTraining2,2021.2.3,Win32,59.47778505,,,,,,,,,,,,,,,,,,,,,3,0.5413,1,8,20,2,1,RegPatterns/09-ms_2_1_1_1_3_4_unit270.mp3,RegPatterns/09d-ms_2_1_1_3_1_4_unit270.mp3,,,,,,,,,
,,,,,,,,,,,,,train3_audtrain2,2023-11-10_11h26.00.244,AudTraining2,2021.2.3,Win32,59.47778505,,,,,,,,,,,,,,RegPatterns/14-ms_2_1_1_4_1_3_unit250.mp3,0,0,0,0,0,1,,,,,,,,,,,,,,,,,,
,,,,,,,,,,,,,train3_audtrain2,2023-11-10_11h26.00.244,AudTraining2,2021.2.3,Win32,59.47778505,,,,,,,,,,,,,,RegPatterns/14d-ms_2_1_1_4_3_1_unit250.mp3,2,1,0,1,0,1,,,,,,,,,,,,,,,,,,
,,,,,,,,,,,,,train3_audtrain2,2023-11-10_11h26.00.244,AudTraining2,2021.2.3,Win32,59.47778505,,,,,,,,,,,,,,RegPatterns/14-ms_2_1_1_4_1_3_unit250.mp3,0,2,0,2,0,1,,,,,,,,,,,,,,,,,,
,,,,,,,,,,,,,train3_audtrain2,2023-11-10_11h26.00.244,AudTraining2,2021.2.3,Win32,59.47778505,,,,,,,,,,,,,,,,,,,,,1,6.8996,1,9,21,4,1,RegPatterns/14-ms_2_1_1_4_1_3_unit250.mp3,RegPatterns/14d-ms_2_1_1_4_3_1_unit250.mp3,,,,,,,,,
,,,,,,,,,,,,,train3_audtrain2,2023-11-10_11h26.00.244,AudTraining2,2021.2.3,Win32,59.47778505,,,,,,,,,,,,,,RegPatterns/16-ms_3_1_2_2_1_3_unit230.mp3,0,0,0,0,0,1,,,,,,,,,,,,,,,,,,
,,,,,,,,,,,,,train3_audtrain2,2023-11-10_11h26.00.244,AudTraining2,2021.2.3,Win32,59.47778505,,,,,,,,,,,,,,RegPatterns/16d-ms_3_1_2_2_3_1_unit230.mp3,2,1,0,1,0,1,,,,,,,,,,,,,,,,,,
,,,,,,,,,,,,,train3_audtrain2,2023-11-10_11h26.00.244,AudTraining2,2021.2.3,Win32,59.47778505,,,,,,,,,,,,,,RegPatterns/16-ms_3_1_2_2_1_3_unit230.mp3,0,2,0,2,0,1,,,,,,,,,,,,,,,,,,
,,,,,,,,,,,,,train3_audtrain2,2023-11-10_11h26.00.244,AudTraining2,2021.2.3,Win32,59.47778505,,,,,,,,,,,,,,,,,,,,,2,5.4533,1,10,22,5,1,RegPatterns/16-ms_3_1_2_2_1_3_unit230.mp3,RegPatterns/16d-ms_3_1_2_2_3_1_unit230.mp3,,,,,,,,,
,,,,,,,,,,,,,train3_audtrain2,2023-11-10_11h26.00.244,AudTraining2,2021.2.3,Win32,59.47778505,,,,,,,,,,,,,,RegPatterns/03d-ms_1_3_4_2_2_unit270.mp3,1,0,0,0,0,1,,,,,,,,,,,,,,,,,,
,,,,,,,,,,,,,train3_audtrain2,2023-11-10_11h26.00.244,AudTraining2,2021.2.3,Win32,59.47778505,,,,,,,,,,,,,,RegPatterns/03-ms_3_1_4_2_2_unit270.mp3,0,1,0,1,0,1,,,,,,,,,,,,,,,,,,
,,,,,,,,,,,,,train3_audtrain2,2023-11-10_11h26.00.244,AudTraining2,2021.2.3,Win32,59.47778505,,,,,,,,,,,,,,RegPatterns/03-ms_3_1_4_2_2_unit270.mp3,0,2,0,2,0,1,,,,,,,,,,,,,,,,,,
,,,,,,,,,,,,,train3_audtrain2,2023-11-10_11h26.00.244,AudTraining2,2021.2.3,Win32,59.47778505,,,,,,,,,,,,,,,,,,,,,3,3.9013,1,11,23,1,1,RegPatterns/03-ms_3_1_4_2_2_unit270.mp3,RegPatterns/03d-ms_1_3_4_2_2_unit270.mp3,,,,,,,,,
,,,,,,,,,,,,,train3_audtrain2,2023-11-10_11h26.00.244,AudTraining2,2021.2.3,Win32,59.47778505,,,,,,,,,,,,,,RegPatterns/19-ms_1_1_2_3_1_2_2_unit230.mp3,0,0,0,0,0,1,,,,,,,,,,,,,,,,,,
,,,,,,,,,,,,,train3_audtrain2,2023-11-10_11h26.00.244,AudTraining2,2021.2.3,Win32,59.47778505,,,,,,,,,,,,,,RegPatterns/19d-ms_1_1_2_1_3_2_2_unit230.mp3,2,1,0,1,0,1,,,,,,,,,,,,,,,,,,
,,,,,,,,,,,,,train3_audtrain2,2023-11-10_11h26.00.244,AudTraining2,2021.2.3,Win32,59.47778505,,,,,,,,,,,,,,RegPatterns/19-ms_1_1_2_3_1_2_2_unit230.mp3,0,2,0,2,0,1,,,,,,,,,,,,,,,,,,
,,,,,,,,,,,,,train3_audtrain2,2023-11-10_11h26.00.244,AudTraining2,2021.2.3,Win32,59.47778505,,,,,,,,,,RegPatterns/Noise.mp3,RegPatterns/Noise.mp3,,,,,,,,,,3,1.4576,,,,,,,,g,5.4238,0,0,0,0,1,,
,,,,,,,,,,,,,train3_audtrain2,2023-11-10_11h26.00.244,AudTraining2,2021.2.3,Win32,59.47778505,,,,,,,,,,,,,,,,,,,,,,,2,0,24,7,1,RegPatterns/19-ms_1_1_2_3_1_2_2_unit230.mp3,RegPatterns/19d-ms_1_1_2_1_3_2_2_unit230.mp3,,,,,,,,,
,,,,,,,,,,,,,train3_audtrain2,2023-11-10_11h26.00.244,AudTraining2,2021.2.3,Win32,59.47778505,,,,,,,,,,,,,,RegPatterns/14-ms_2_1_1_4_1_3_unit250.mp3,0,0,0,0,0,1,,,,,,,,,,,,,,,,,,
,,,,,,,,,,,,,train3_audtrain2,2023-11-10_11h26.00.244,AudTraining2,2021.2.3,Win32,59.47778505,,,,,,,,,,,,,,RegPatterns/14-ms_2_1_1_4_1_3_unit250.mp3,0,1,0,1,0,1,,,,,,,,,,,,,,,,,,
,,,,,,,,,,,,,train3_audtrain2,2023-11-10_11h26.00.244,AudTraining2,2021.2.3,Win32,59.47778505,,,,,,,,,,,,,,RegPatterns/14d-ms_2_1_1_4_3_1_unit250.mp3,3,2,0,2,0,1,,,,,,,,,,,,,,,,,,
,,,,,,,,,,,,,train3_audtrain2,2023-11-10_11h26.00.244,AudTraining2,2021.2.3,Win32,59.47778505,,,,,,,,,,,,,,,,,,,,,3,2.7609,2,1,25,4,1,RegPatterns/14-ms_2_1_1_4_1_3_unit250.mp3,RegPatterns/14d-ms_2_1_1_4_3_1_unit250.mp3,,,,,,,,,
,,,,,,,,,,,,,train3_audtrain2,2023-11-10_11h26.00.244,AudTraining2,2021.2.3,Win32,59.47778505,,,,,,,,,,,,,,RegPatterns/16-ms_3_1_2_2_1_3_unit230.mp3,0,0,0,0,0,1,,,,,,,,,,,,,,,,,,
,,,,,,,,,,,,,train3_audtrain2,2023-11-10_11h26.00.244,AudTraining2,2021.2.3,Win32,59.47778505,,,,,,,,,,,,,,RegPatterns/16-ms_3_1_2_2_1_3_unit230.mp3,0,1,0,1,0,1,,,,,,,,,,,,,,,,,,
,,,,,,,,,,,,,train3_audtrain2,2023-11-10_11h26.00.244,AudTraining2,2021.2.3,Win32,59.47778505,,,,,,,,,,,,,,RegPatterns/16d-ms_3_1_2_2_3_1_unit230.mp3,3,2,0,2,0,1,,,,,,,,,,,,,,,,,,
,,,,,,,,,,,,,train3_audtrain2,2023-11-10_11h26.00.244,AudTraining2,2021.2.3,Win32,59.47778505,,,,,,,,,,,,,,,,,,,,,1,2.2088,2,2,26,5,1,RegPatterns/16-ms_3_1_2_2_1_3_unit230.mp3,RegPatterns/16d-ms_3_1_2_2_3_1_unit230.mp3,,,,,,,,,
,,,,,,,,,,,,,train3_audtrain2,2023-11-10_11h26.00.244,AudTraining2,2021.2.3,Win32,59.47778505,,,,,,,,,,,,,,RegPatterns/03-ms_3_1_4_2_2_unit270.mp3,0,0,0,0,0,1,,,,,,,,,,,,,,,,,,
,,,,,,,,,,,,,train3_audtrain2,2023-11-10_11h26.00.244,AudTraining2,2021.2.3,Win32,59.47778505,,,,,,,,,,,,,,RegPatterns/03-ms_3_1_4_2_2_unit270.mp3,0,1,0,1,0,1,,,,,,,,,,,,,,,,,,
,,,,,,,,,,,,,train3_audtrain2,2023-11-10_11h26.00.244,AudTraining2,2021.2.3,Win32,59.47778505,,,,,,,,,,,,,,RegPatterns/03d-ms_1_3_4_2_2_unit270.mp3,3,2,0,2,0,1,,,,,,,,,,,,,,,,,,
,,,,,,,,,,,,,train3_audtrain2,2023-11-10_11h26.00.244,AudTraining2,2021.2.3,Win32,59.47778505,,,,,,,,,,,,,,,,,,,,,3,0.8516,2,3,27,1,1,RegPatterns/03-ms_3_1_4_2_2_unit270.mp3,RegPatterns/03d-ms_1_3_4_2_2_unit270.mp3,,,,,,,,,
,,,,,,,,,,,,,train3_audtrain2,2023-11-10_11h26.00.244,AudTraining2,2021.2.3,Win32,59.47778505,,,,,,,,,,,,,,RegPatterns/20-ms_2_1_1_2_2_3_1_unit230.mp3,0,0,0,0,0,1,,,,,,,,,,,,,,,,,,
,,,,,,,,,,,,,train3_audtrain2,2023-11-10_11h26.00.244,AudTraining2,2021.2.3,Win32,59.47778505,,,,,,,,,,,,,,RegPatterns/20-ms_2_1_1_2_2_3_1_unit230.mp3,0,1,0,1,0,1,,,,,,,,,,,,,,,,,,
,,,,,,,,,,,,,train3_audtrain2,2023-11-10_11h26.00.244,AudTraining2,2021.2.3,Win32,59.47778505,,,,,,,,,,,,,,RegPatterns/20d-ms_2_1_1_2_2_1_3_unit230.mp3,3,2,0,2,0,1,,,,,,,,,,,,,,,,,,
,,,,,,,,,,,,,train3_audtrain2,2023-11-10_11h26.00.244,AudTraining2,2021.2.3,Win32,59.47778505,,,,,,,,,,,,,,,,,,,,,1,18.0359,2,4,28,11,1,RegPatterns/20-ms_2_1_1_2_2_3_1_unit230.mp3,RegPatterns/20d-ms_2_1_1_2_2_1_3_unit230.mp3,,,,,,,,,
,,,,,,,,,,,,,train3_audtrain2,2023-11-10_11h26.00.244,AudTraining2,2021.2.3,Win32,59.47778505,,,,,,,,,,,,,,RegPatterns/26-ms_1_1_2_2_1_1_4_unit250.mp3,0,0,0,0,0,1,,,,,,,,,,,,,,,,,,
,,,,,,,,,,,,,train3_audtrain2,2023-11-10_11h26.00.244,AudTraining2,2021.2.3,Win32,59.47778505,,,,,,,,,,,,,,RegPatterns/26d-ms_1_1_2_1_1_2_4_unit250.mp3,2,1,0,1,0,1,,,,,,,,,,,,,,,,,,
,,,,,,,,,,,,,train3_audtrain2,2023-11-10_11h26.00.244,AudTraining2,2021.2.3,Win32,59.47778505,,,,,,,,,,,,,,RegPatterns/26-ms_1_1_2_2_1_1_4_unit250.mp3,0,2,0,2,0,1,,,,,,,,,,,,,,,,,,
,,,,,,,,,,,,,train3_audtrain2,2023-11-10_11h26.00.244,AudTraining2,2021.2.3,Win32,59.47778505,,,,,,,,,,,,,,,,,,,,,2,10.2263,2,5,29,8,1,RegPatterns/26-ms_1_1_2_2_1_1_4_unit250.mp3,RegPatterns/26d-ms_1_1_2_1_1_2_4_unit250.mp3,,,,,,,,,
,,,,,,,,,,,,,train3_audtrain2,2023-11-10_11h26.00.244,AudTraining2,2021.2.3,Win32,59.47778505,,,,,,,,,,,,,,RegPatterns/18-ms_4_2_2_1_1_2_unit270.mp3,0,0,0,0,0,1,,,,,,,,,,,,,,,,,,
,,,,,,,,,,,,,train3_audtrain2,2023-11-10_11h26.00.244,AudTraining2,2021.2.3,Win32,59.47778505,,,,,,,,,,,,,,RegPatterns/18d-ms_4_2_2_2_1_1_unit270.mp3,2,1,0,1,0,1,,,,,,,,,,,,,,,,,,
,,,,,,,,,,,,,train3_audtrain2,2023-11-10_11h26.00.244,AudTraining2,2021.2.3,Win32,59.47778505,,,,,,,,,,,,,,RegPatterns/18-ms_4_2_2_1_1_2_unit270.mp3,0,2,0,2,0,1,,,,,,,,,,,,,,,,,,
,,,,,,,,,,,,,train3_audtrain2,2023-11-10_11h26.00.244,AudTraining2,2021.2.3,Win32,59.47778505,,,,,,,,,,,,,,,,,,,,,3,3.0447,2,6,30,6,1,RegPatterns/18-ms_4_2_2_1_1_2_unit270.mp3,RegPatterns/18d-ms_4_2_2_2_1_1_unit270.mp3,,,,,,,,,
,,,,,,,,,,,,,train3_audtrain2,2023-11-10_11h26.00.244,AudTraining2,2021.2.3,Win32,59.47778505,,,,,,,,,,,,,,RegPatterns/09-ms_2_1_1_1_3_4_unit270.mp3,0,0,0,0,0,1,,,,,,,,,,,,,,,,,,
,,,,,,,,,,,,,train3_audtrain2,2023-11-10_11h26.00.244,AudTraining2,2021.2.3,Win32,59.47778505,,,,,,,,,,,,,,RegPatterns/09d-ms_2_1_1_3_1_4_unit270.mp3,2,1,0,1,0,1,,,,,,,,,,,,,,,,,,
,,,,,,,,,,,,,train3_audtrain2,2023-11-10_11h26.00.244,AudTraining2,2021.2.3,Win32,59.47778505,,,,,,,,,,,,,,RegPatterns/09-ms_2_1_1_1_3_4_unit270.mp3,0,2,0,2,0,1,,,,,,,,,,,,,,,,,,
,,,,,,,,,,,,,train3_audtrain2,2023-11-10_11h26.00.244,AudTraining2,2021.2.3,Win32,59.47778505,,,,,,,,,,,,,,,,,,,,,3,8.0082,2,7,31,2,1,RegPatterns/09-ms_2_1_1_1_3_4_unit270.mp3,RegPatterns/09d-ms_2_1_1_3_1_4_unit270.mp3,,,,,,,,,
,,,,,,,,,,,,,train3_audtrain2,2023-11-10_11h26.00.244,AudTraining2,2021.2.3,Win32,59.47778505,,,,,,,,,,,,,,RegPatterns/12-ms_3_1_1_3_2_2_unit270.mp3,0,0,0,0,0,1,,,,,,,,,,,,,,,,,,
,,,,,,,,,,,,,train3_audtrain2,2023-11-10_11h26.00.244,AudTraining2,2021.2.3,Win32,59.47778505,,,,,,,,,,,,,,RegPatterns/12d-ms_3_1_3_1_2_2_unit270.mp3,2,1,0,1,0,1,,,,,,,,,,,,,,,,,,
,,,,,,,,,,,,,train3_audtrain2,2023-11-10_11h26.00.244,AudTraining2,2021.2.3,Win32,59.47778505,,,,,,,,,,,,,,RegPatterns/12-ms_3_1_1_3_2_2_unit270.mp3,0,2,0,2,0,1,,,,,,,,,,,,,,,,,,
,,,,,,,,,,,,,train3_audtrain2,2023-11-10_11h26.00.244,AudTraining2,2021.2.3,Win32,59.47778505,,,,,,,,,,,,,,,,,,,,,3,0.8338,2,8,32,3,1,RegPatterns/12-ms_3_1_1_3_2_2_unit270.mp3,RegPatterns/12d-ms_3_1_3_1_2_2_unit270.mp3,,,,,,,,,
,,,,,,,,,,,,,train3_audtrain2,2023-11-10_11h26.00.244,AudTraining2,2021.2.3,Win32,59.47778505,,,,,,,,,,,,,,RegPatterns/29d-ms_3_1_2_1_1_3_1_unit250.mp3,1,0,0,0,0,1,,,,,,,,,,,,,,,,,,
,,,,,,,,,,,,,train3_audtrain2,2023-11-10_11h26.00.244,AudTraining2,2021.2.3,Win32,59.47778505,,,,,,,,,,,,,,RegPatterns/29-ms_3_1_2_1_1_1_3_unit250.mp3,0,1,0,1,0,1,,,,,,,,,,,,,,,,,,
,,,,,,,,,,,,,train3_audtrain2,2023-11-10_11h26.00.244,AudTraining2,2021.2.3,Win32,59.47778505,,,,,,,,,,,,,,RegPatterns/29-ms_3_1_2_1_1_1_3_unit250.mp3,0,2,0,2,0,1,,,,,,,,,,,,,,,,,,
,,,,,,,,,,,,,train3_audtrain2,2023-11-10_11h26.00.244,AudTraining2,2021.2.3,Win32,59.47778505,,,,,,,,,,,,,,,,,,,,,1,1.5636,2,9,33,9,1,RegPatterns/29-ms_3_1_2_1_1_1_3_unit250.mp3,RegPatterns/29d-ms_3_1_2_1_1_3_1_unit250.mp3,,,,,,,,,
,,,,,,,,,,,,,train3_audtrain2,2023-11-10_11h26.00.244,AudTraining2,2021.2.3,Win32,59.47778505,,,,,,,,,,,,,,RegPatterns/02d-ms_3_1_4_3_1_unit250.mp3,1,0,0,0,0,1,,,,,,,,,,,,,,,,,,
,,,,,,,,,,,,,train3_audtrain2,2023-11-10_11h26.00.244,AudTraining2,2021.2.3,Win32,59.47778505,,,,,,,,,,,,,,RegPatterns/02-ms_3_1_4_1_3_unit250.mp3,0,1,0,1,0,1,,,,,,,,,,,,,,,,,,
,,,,,,,,,,,,,train3_audtrain2,2023-11-10_11h26.00.244,AudTraining2,2021.2.3,Win32,59.47778505,,,,,,,,,,,,,,RegPatterns/02-ms_3_1_4_1_3_unit250.mp3,0,2,0,2,0,1,,,,,,,,,,,,,,,,,,
,,,,,,,,,,,,,train3_audtrain2,2023-11-10_11h26.00.244,AudTraining2,2021.2.3,Win32,59.47778505,,,,,,,,,,,,,,,,,,,,,1,0.5068,2,10,34,0,1,RegPatterns/02-ms_3_1_4_1_3_unit250.mp3,RegPatterns/02d-ms_3_1_4_3_1_unit250.mp3,,,,,,,,,
,,,,,,,,,,,,,train3_audtrain2,2023-11-10_11h26.00.244,AudTraining2,2021.2.3,Win32,59.47778505,,,,,,,,,,,,,,RegPatterns/30-ms_3_1_2_2_1_1_2_unit230.mp3,0,0,0,0,0,1,,,,,,,,,,,,,,,,,,
,,,,,,,,,,,,,train3_audtrain2,2023-11-10_11h26.00.244,AudTraining2,2021.2.3,Win32,59.47778505,,,,,,,,,,,,,,RegPatterns/30d-ms_1_3_2_2_1_1_2_unit230.mp3,2,1,0,1,0,1,,,,,,,,,,,,,,,,,,
,,,,,,,,,,,,,train3_audtrain2,2023-11-10_11h26.00.244,AudTraining2,2021.2.3,Win32,59.47778505,,,,,,,,,,,,,,RegPatterns/30-ms_3_1_2_2_1_1_2_unit230.mp3,0,2,0,2,0,1,,,,,,,,,,,,,,,,,,
,,,,,,,,,,,,,train3_audtrain2,2023-11-10_11h26.00.244,AudTraining2,2021.2.3,Win32,59.47778505,,,,,,,,,,,,,,,,,,,,,3,0.4854,2,11,35,10,1,RegPatterns/30-ms_3_1_2_2_1_1_2_unit230.mp3,RegPatterns/30d-ms_1_3_2_2_1_1_2_unit230.mp3,,,,,,,,,
,,,,,,,,,,,,,train3_audtrain2,2023-11-10_11h26.00.244,AudTraining2,2021.2.3,Win32,59.47778505,,,,,,,,,,,,,,,,,,,,,,,,,,,,,,,,,,,,,space,1.2374
