key_resp.keys,key_resp.rt,key_resp_2.keys,key_resp_2.rt,key_resp_3.keys,key_resp_3.rt,trials.thisRepN,trials.thisTrialN,trials.thisN,trials.thisIndex,trials.ran,volstandard,voldeviant,participant,date,expName,psychopyVersion,OS,frameRate,key_resp_4.keys,key_resp_4.rt,key_resp_5.keys,key_resp_5.rt,trials_2.thisRepN,trials_2.thisTrialN,trials_2.thisN,trials_2.thisIndex,trials_2.ran,RegStandardPitch,RegDeviantPitch,key_resp_6.keys,key_resp_6.rt,RegAudSequence,diff-reg,trials_3.thisRepN,trials_3.thisTrialN,trials_3.thisN,trials_3.thisIndex,trials_3.ran,key_resp_7.keys,key_resp_7.rt,trials_5.thisRepN,trials_5.thisTrialN,trials_5.thisN,trials_5.thisIndex,trials_5.ran,standard,devient,key_resp_8.keys,key_resp_8.rt,trials_4.thisRepN,trials_4.thisTrialN,trials_4.thisN,trials_4.thisIndex,trials_4.ran,key_resp_9.keys,key_resp_9.rt
space,18.5505,space,72.1682,space,1.1281,0,0,0,0,1,RegPatterns/01-ms_2_2_4_1_3_unit230.mp3,RegPatterns/01d-ms_2_2_4_3_1_unit230.mp3,train3_audtrain2,2023-11-09_20h56.44.277,AudTraining2,2021.2.3,Win32,59.7335882,,,,,,,,,,,,,,,,,,,,,,,,,,,,,,,,,,,,,,
,,,,,,,,,,,,,train3_audtrain2,2023-11-09_20h56.44.277,AudTraining2,2021.2.3,Win32,59.7335882,space,12.801,g,0.6929,0,0,0,0,1,RegPatterns/Noise.mp3,RegPatterns/Noise.mp3,,,,,,,,,,,,,,,,,,,,,,,,,,,
,,,,,,,,,,,,,train3_audtrain2,2023-11-09_20h56.44.277,AudTraining2,2021.2.3,Win32,59.7335882,,,,,,,,,,,,space,41.042,RegPatterns/26d-ms_1_1_2_1_1_2_4_unit250.mp3,1,0,0,0,0,1,,,,,,,,,,,,,,,,,,
,,,,,,,,,,,,,train3_audtrain2,2023-11-09_20h56.44.277,AudTraining2,2021.2.3,Win32,59.7335882,,,,,,,,,,,,,,RegPatterns/26-ms_1_1_2_2_1_1_4_unit250.mp3,0,1,0,1,0,1,,,,,,,,,,,,,,,,,,
,,,,,,,,,,,,,train3_audtrain2,2023-11-09_20h56.44.277,AudTraining2,2021.2.3,Win32,59.7335882,,,,,,,,,,,,,,RegPatterns/26-ms_1_1_2_2_1_1_4_unit250.mp3,0,2,0,2,0,1,,,,,,,,,,,,,,,,,,
,,,,,,,,,,,,,train3_audtrain2,2023-11-09_20h56.44.277,AudTraining2,2021.2.3,Win32,59.7335882,,,,,,,,,,,,,,,,,,,,,1,0.3081,0,0,0,8,1,RegPatterns/26-ms_1_1_2_2_1_1_4_unit250.mp3,RegPatterns/26d-ms_1_1_2_1_1_2_4_unit250.mp3,,,,,,,,,
,,,,,,,,,,,,,train3_audtrain2,2023-11-09_20h56.44.277,AudTraining2,2021.2.3,Win32,59.7335882,,,,,,,,,,,,,,RegPatterns/29d-ms_3_1_2_1_1_3_1_unit250.mp3,1,0,0,0,0,1,,,,,,,,,,,,,,,,,,
,,,,,,,,,,,,,train3_audtrain2,2023-11-09_20h56.44.277,AudTraining2,2021.2.3,Win32,59.7335882,,,,,,,,,,,,,,RegPatterns/29-ms_3_1_2_1_1_1_3_unit250.mp3,0,1,0,1,0,1,,,,,,,,,,,,,,,,,,
,,,,,,,,,,,,,train3_audtrain2,2023-11-09_20h56.44.277,AudTraining2,2021.2.3,Win32,59.7335882,,,,,,,,,,,,,,RegPatterns/29-ms_3_1_2_1_1_1_3_unit250.mp3,0,2,0,2,0,1,,,,,,,,,,,,,,,,,,
,,,,,,,,,,,,,train3_audtrain2,2023-11-09_20h56.44.277,AudTraining2,2021.2.3,Win32,59.7335882,,,,,,,,,,,,,,,,,,,,,3,22.239,0,1,1,9,1,RegPatterns/29-ms_3_1_2_1_1_1_3_unit250.mp3,RegPatterns/29d-ms_3_1_2_1_1_3_1_unit250.mp3,,,,,,,,,
,,,,,,,,,,,,,train3_audtrain2,2023-11-09_20h56.44.277,AudTraining2,2021.2.3,Win32,59.7335882,,,,,,,,,,,,,,RegPatterns/19-ms_1_1_2_3_1_2_2_unit230.mp3,0,0,0,0,0,1,,,,,,,,,,,,,,,,,,
,,,,,,,,,,,,,train3_audtrain2,2023-11-09_20h56.44.277,AudTraining2,2021.2.3,Win32,59.7335882,,,,,,,,,,,,,,RegPatterns/19d-ms_1_1_2_1_3_2_2_unit230.mp3,2,1,0,1,0,1,,,,,,,,,,,,,,,,,,
,,,,,,,,,,,,,train3_audtrain2,2023-11-09_20h56.44.277,AudTraining2,2021.2.3,Win32,59.7335882,,,,,,,,,,,,,,RegPatterns/19-ms_1_1_2_3_1_2_2_unit230.mp3,0,2,0,2,0,1,,,,,,,,,,,,,,,,,,
,,,,,,,,,,,,,train3_audtrain2,2023-11-09_20h56.44.277,AudTraining2,2021.2.3,Win32,59.7335882,,,,,,,,,,,,,,,,,,,,,1,0.6019,0,2,2,7,1,RegPatterns/19-ms_1_1_2_3_1_2_2_unit230.mp3,RegPatterns/19d-ms_1_1_2_1_3_2_2_unit230.mp3,,,,,,,,,
,,,,,,,,,,,,,train3_audtrain2,2023-11-09_20h56.44.277,AudTraining2,2021.2.3,Win32,59.7335882,,,,,,,,,,,,,,RegPatterns/30-ms_3_1_2_2_1_1_2_unit230.mp3,0,0,0,0,0,1,,,,,,,,,,,,,,,,,,
,,,,,,,,,,,,,train3_audtrain2,2023-11-09_20h56.44.277,AudTraining2,2021.2.3,Win32,59.7335882,,,,,,,,,,,,,,RegPatterns/30d-ms_1_3_2_2_1_1_2_unit230.mp3,2,1,0,1,0,1,,,,,,,,,,,,,,,,,,
,,,,,,,,,,,,,train3_audtrain2,2023-11-09_20h56.44.277,AudTraining2,2021.2.3,Win32,59.7335882,,,,,,,,,,,,,,RegPatterns/30-ms_3_1_2_2_1_1_2_unit230.mp3,0,2,0,2,0,1,,,,,,,,,,,,,,,,,,
,,,,,,,,,,,,,train3_audtrain2,2023-11-09_20h56.44.277,AudTraining2,2021.2.3,Win32,59.7335882,,,,,,,,,,,,,,,,,,,,,3,5.7068,0,3,3,10,1,RegPatterns/30-ms_3_1_2_2_1_1_2_unit230.mp3,RegPatterns/30d-ms_1_3_2_2_1_1_2_unit230.mp3,,,,,,,,,
,,,,,,,,,,,,,train3_audtrain2,2023-11-09_20h56.44.277,AudTraining2,2021.2.3,Win32,59.7335882,,,,,,,,,,,,,,RegPatterns/20-ms_2_1_1_2_2_3_1_unit230.mp3,0,0,0,0,0,1,,,,,,,,,,,,,,,,,,
,,,,,,,,,,,,,train3_audtrain2,2023-11-09_20h56.44.277,AudTraining2,2021.2.3,Win32,59.7335882,,,,,,,,,,,,,,RegPatterns/20d-ms_2_1_1_2_2_1_3_unit230.mp3,2,1,0,1,0,1,,,,,,,,,,,,,,,,,,
,,,,,,,,,,,,,train3_audtrain2,2023-11-09_20h56.44.277,AudTraining2,2021.2.3,Win32,59.7335882,,,,,,,,,,,,,,RegPatterns/20-ms_2_1_1_2_2_3_1_unit230.mp3,0,2,0,2,0,1,,,,,,,,,,,,,,,,,,
,,,,,,,,,,,,,train3_audtrain2,2023-11-09_20h56.44.277,AudTraining2,2021.2.3,Win32,59.7335882,,,,,,,,,,,,,,,,,,,,,1,0.6508,0,4,4,11,1,RegPatterns/20-ms_2_1_1_2_2_3_1_unit230.mp3,RegPatterns/20d-ms_2_1_1_2_2_1_3_unit230.mp3,,,,,,,,,
,,,,,,,,,,,,,train3_audtrain2,2023-11-09_20h56.44.277,AudTraining2,2021.2.3,Win32,59.7335882,,,,,,,,,,,,,,RegPatterns/16-ms_3_1_2_2_1_3_unit230.mp3,0,0,0,0,0,1,,,,,,,,,,,,,,,,,,
,,,,,,,,,,,,,train3_audtrain2,2023-11-09_20h56.44.277,AudTraining2,2021.2.3,Win32,59.7335882,,,,,,,,,,,,,,RegPatterns/16d-ms_3_1_2_2_3_1_unit230.mp3,2,1,0,1,0,1,,,,,,,,,,,,,,,,,,
,,,,,,,,,,,,,train3_audtrain2,2023-11-09_20h56.44.277,AudTraining2,2021.2.3,Win32,59.7335882,,,,,,,,,,,,,,RegPatterns/16-ms_3_1_2_2_1_3_unit230.mp3,0,2,0,2,0,1,,,,,,,,,,,,,,,,,,
,,,,,,,,,,,,,train3_audtrain2,2023-11-09_20h56.44.277,AudTraining2,2021.2.3,Win32,59.7335882,,,,,,,,,,,,,,,,,,,,,2,0.49,0,5,5,5,1,RegPatterns/16-ms_3_1_2_2_1_3_unit230.mp3,RegPatterns/16d-ms_3_1_2_2_3_1_unit230.mp3,,,,,,,,,
,,,,,,,,,,,,,train3_audtrain2,2023-11-09_20h56.44.277,AudTraining2,2021.2.3,Win32,59.7335882,,,,,,,,,,,,,,RegPatterns/02-ms_3_1_4_1_3_unit250.mp3,0,0,0,0,0,1,,,,,,,,,,,,,,,,,,
,,,,,,,,,,,,,train3_audtrain2,2023-11-09_20h56.44.277,AudTraining2,2021.2.3,Win32,59.7335882,,,,,,,,,,,,,,RegPatterns/02d-ms_3_1_4_3_1_unit250.mp3,2,1,0,1,0,1,,,,,,,,,,,,,,,,,,
,,,,,,,,,,,,,train3_audtrain2,2023-11-09_20h56.44.277,AudTraining2,2021.2.3,Win32,59.7335882,,,,,,,,,,,,,,RegPatterns/02-ms_3_1_4_1_3_unit250.mp3,0,2,0,2,0,1,,,,,,,,,,,,,,,,,,
,,,,,,,,,,,,,train3_audtrain2,2023-11-09_20h56.44.277,AudTraining2,2021.2.3,Win32,59.7335882,,,,,,,,,,,,,,,,,,,,,1,0.4788,0,6,6,0,1,RegPatterns/02-ms_3_1_4_1_3_unit250.mp3,RegPatterns/02d-ms_3_1_4_3_1_unit250.mp3,,,,,,,,,
,,,,,,,,,,,,,train3_audtrain2,2023-11-09_20h56.44.277,AudTraining2,2021.2.3,Win32,59.7335882,,,,,,,,,,,,,,RegPatterns/09-ms_2_1_1_1_3_4_unit270.mp3,0,0,0,0,0,1,,,,,,,,,,,,,,,,,,
,,,,,,,,,,,,,train3_audtrain2,2023-11-09_20h56.44.277,AudTraining2,2021.2.3,Win32,59.7335882,,,,,,,,,,,,,,RegPatterns/09-ms_2_1_1_1_3_4_unit270.mp3,0,1,0,1,0,1,,,,,,,,,,,,,,,,,,
,,,,,,,,,,,,,train3_audtrain2,2023-11-09_20h56.44.277,AudTraining2,2021.2.3,Win32,59.7335882,,,,,,,,,,,,,,RegPatterns/09d-ms_2_1_1_3_1_4_unit270.mp3,3,2,0,2,0,1,,,,,,,,,,,,,,,,,,
,,,,,,,,,,,,,train3_audtrain2,2023-11-09_20h56.44.277,AudTraining2,2021.2.3,Win32,59.7335882,,,,,,,,,,,,,,,,,,,,,3,479.9548,0,7,7,2,1,RegPatterns/09-ms_2_1_1_1_3_4_unit270.mp3,RegPatterns/09d-ms_2_1_1_3_1_4_unit270.mp3,,,,,,,,,
,,,,,,,,,,,,,train3_audtrain2,2023-11-09_20h56.44.277,AudTraining2,2021.2.3,Win32,59.7335882,,,,,,,,,,,,,,RegPatterns/18-ms_4_2_2_1_1_2_unit270.mp3,0,0,0,0,0,1,,,,,,,,,,,,,,,,,,
,,,,,,,,,,,,,train3_audtrain2,2023-11-09_20h56.44.277,AudTraining2,2021.2.3,Win32,59.7335882,,,,,,,,,,,,,,RegPatterns/18d-ms_4_2_2_2_1_1_unit270.mp3,2,1,0,1,0,1,,,,,,,,,,,,,,,,,,
,,,,,,,,,,,,,train3_audtrain2,2023-11-09_20h56.44.277,AudTraining2,2021.2.3,Win32,59.7335882,,,,,,,,,,,,,,RegPatterns/18-ms_4_2_2_1_1_2_unit270.mp3,0,2,0,2,0,1,,,,,,,,,,,,,,,,,,
,,,,,,,,,,,,,train3_audtrain2,2023-11-09_20h56.44.277,AudTraining2,2021.2.3,Win32,59.7335882,,,,,,,,,,,,,,,,,,,,,1,0.424,0,8,8,6,1,RegPatterns/18-ms_4_2_2_1_1_2_unit270.mp3,RegPatterns/18d-ms_4_2_2_2_1_1_unit270.mp3,,,,,,,,,
,,,,,,,,,,,,,train3_audtrain2,2023-11-09_20h56.44.277,AudTraining2,2021.2.3,Win32,59.7335882,,,,,,,,,,,,,,RegPatterns/14d-ms_2_1_1_4_3_1_unit250.mp3,1,0,0,0,0,1,,,,,,,,,,,,,,,,,,
,,,,,,,,,,,,,train3_audtrain2,2023-11-09_20h56.44.277,AudTraining2,2021.2.3,Win32,59.7335882,,,,,,,,,,,,,,RegPatterns/14-ms_2_1_1_4_1_3_unit250.mp3,0,1,0,1,0,1,,,,,,,,,,,,,,,,,,
,,,,,,,,,,,,,train3_audtrain2,2023-11-09_20h56.44.277,AudTraining2,2021.2.3,Win32,59.7335882,,,,,,,,,,,,,,RegPatterns/14-ms_2_1_1_4_1_3_unit250.mp3,0,2,0,2,0,1,,,,,,,,,,,,,,,,,,
,,,,,,,,,,,,,train3_audtrain2,2023-11-09_20h56.44.277,AudTraining2,2021.2.3,Win32,59.7335882,,,,,,,,,,,,,,,,,,,,,3,9.5437,0,9,9,4,1,RegPatterns/14-ms_2_1_1_4_1_3_unit250.mp3,RegPatterns/14d-ms_2_1_1_4_3_1_unit250.mp3,,,,,,,,,
,,,,,,,,,,,,,train3_audtrain2,2023-11-09_20h56.44.277,AudTraining2,2021.2.3,Win32,59.7335882,,,,,,,,,,,,,,RegPatterns/12-ms_3_1_1_3_2_2_unit270.mp3,0,0,0,0,0,1,,,,,,,,,,,,,,,,,,
,,,,,,,,,,,,,train3_audtrain2,2023-11-09_20h56.44.277,AudTraining2,2021.2.3,Win32,59.7335882,,,,,,,,,,,,,,RegPatterns/12d-ms_3_1_3_1_2_2_unit270.mp3,2,1,0,1,0,1,,,,,,,,,,,,,,,,,,
,,,,,,,,,,,,,train3_audtrain2,2023-11-09_20h56.44.277,AudTraining2,2021.2.3,Win32,59.7335882,,,,,,,,,,,,,,RegPatterns/12-ms_3_1_1_3_2_2_unit270.mp3,0,2,0,2,0,1,,,,,,,,,,,,,,,,,,
,,,,,,,,,,,,,train3_audtrain2,2023-11-09_20h56.44.277,AudTraining2,2021.2.3,Win32,59.7335882,,,,,,,,,,,,,,,,,,,,,3,0.7517,0,10,10,3,1,RegPatterns/12-ms_3_1_1_3_2_2_unit270.mp3,RegPatterns/12d-ms_3_1_3_1_2_2_unit270.mp3,,,,,,,,,
,,,,,,,,,,,,,train3_audtrain2,2023-11-09_20h56.44.277,AudTraining2,2021.2.3,Win32,59.7335882,,,,,,,,,,,,,,RegPatterns/03-ms_3_1_4_2_2_unit270.mp3,0,0,0,0,0,1,,,,,,,,,,,,,,,,,,
,,,,,,,,,,,,,train3_audtrain2,2023-11-09_20h56.44.277,AudTraining2,2021.2.3,Win32,59.7335882,,,,,,,,,,,,,,RegPatterns/03d-ms_1_3_4_2_2_unit270.mp3,2,1,0,1,0,1,,,,,,,,,,,,,,,,,,
,,,,,,,,,,,,,train3_audtrain2,2023-11-09_20h56.44.277,AudTraining2,2021.2.3,Win32,59.7335882,,,,,,,,,,,,,,RegPatterns/03-ms_3_1_4_2_2_unit270.mp3,0,2,0,2,0,1,,,,,,,,,,,,,,,,,,
,,,,,,,,,,,,,train3_audtrain2,2023-11-09_20h56.44.277,AudTraining2,2021.2.3,Win32,59.7335882,,,,,,,,,,,,,,,,,,,,,1,4.3346,0,11,11,1,1,RegPatterns/03-ms_3_1_4_2_2_unit270.mp3,RegPatterns/03d-ms_1_3_4_2_2_unit270.mp3,,,,,,,,,
,,,,,,,,,,,,,train3_audtrain2,2023-11-09_20h56.44.277,AudTraining2,2021.2.3,Win32,59.7335882,,,,,,,,,,,,,,RegPatterns/02d-ms_3_1_4_3_1_unit250.mp3,1,0,0,0,0,1,,,,,,,,,,,,,,,,,,
,,,,,,,,,,,,,train3_audtrain2,2023-11-09_20h56.44.277,AudTraining2,2021.2.3,Win32,59.7335882,,,,,,,,,,,,,,RegPatterns/02-ms_3_1_4_1_3_unit250.mp3,0,1,0,1,0,1,,,,,,,,,,,,,,,,,,
,,,,,,,,,,,,,train3_audtrain2,2023-11-09_20h56.44.277,AudTraining2,2021.2.3,Win32,59.7335882,,,,,,,,,,,,,,RegPatterns/02-ms_3_1_4_1_3_unit250.mp3,0,2,0,2,0,1,,,,,,,,,,,,,,,,,,
,,,,,,,,,,,,,train3_audtrain2,2023-11-09_20h56.44.277,AudTraining2,2021.2.3,Win32,59.7335882,,,,,,,,,,,,,,,,,,,,,2,2.155,1,0,12,0,1,RegPatterns/02-ms_3_1_4_1_3_unit250.mp3,RegPatterns/02d-ms_3_1_4_3_1_unit250.mp3,,,,,,,,,
,,,,,,,,,,,,,train3_audtrain2,2023-11-09_20h56.44.277,AudTraining2,2021.2.3,Win32,59.7335882,,,,,,,,,,,,,,RegPatterns/14-ms_2_1_1_4_1_3_unit250.mp3,0,0,0,0,0,1,,,,,,,,,,,,,,,,,,
,,,,,,,,,,,,,train3_audtrain2,2023-11-09_20h56.44.277,AudTraining2,2021.2.3,Win32,59.7335882,,,,,,,,,,,,,,RegPatterns/14-ms_2_1_1_4_1_3_unit250.mp3,0,1,0,1,0,1,,,,,,,,,,,,,,,,,,
,,,,,,,,,,,,,train3_audtrain2,2023-11-09_20h56.44.277,AudTraining2,2021.2.3,Win32,59.7335882,,,,,,,,,,,,,,RegPatterns/14d-ms_2_1_1_4_3_1_unit250.mp3,3,2,0,2,0,1,,,,,,,,,,,,,,,,,,
,,,,,,,,,,,,,train3_audtrain2,2023-11-09_20h56.44.277,AudTraining2,2021.2.3,Win32,59.7335882,,,,,,,,,,RegPatterns/Noise.mp3,RegPatterns/Noise.mp3,,,,,,,,,,1,9.8547,,,,,,,,g,0.1335,0,0,0,0,1,,
,,,,,,,,,,,,,train3_audtrain2,2023-11-09_20h56.44.277,AudTraining2,2021.2.3,Win32,59.7335882,,,,,,,,,,,,,,,,,,,,,,,1,1,13,4,1,RegPatterns/14-ms_2_1_1_4_1_3_unit250.mp3,RegPatterns/14d-ms_2_1_1_4_3_1_unit250.mp3,,,,,,,,,
,,,,,,,,,,,,,train3_audtrain2,2023-11-09_20h56.44.277,AudTraining2,2021.2.3,Win32,59.7335882,,,,,,,,,,,,,,RegPatterns/20-ms_2_1_1_2_2_3_1_unit230.mp3,0,0,0,0,0,1,,,,,,,,,,,,,,,,,,
,,,,,,,,,,,,,train3_audtrain2,2023-11-09_20h56.44.277,AudTraining2,2021.2.3,Win32,59.7335882,,,,,,,,,,,,,,RegPatterns/20-ms_2_1_1_2_2_3_1_unit230.mp3,0,1,0,1,0,1,,,,,,,,,,,,,,,,,,
,,,,,,,,,,,,,train3_audtrain2,2023-11-09_20h56.44.277,AudTraining2,2021.2.3,Win32,59.7335882,,,,,,,,,,,,,,RegPatterns/20d-ms_2_1_1_2_2_1_3_unit230.mp3,3,2,0,2,0,1,,,,,,,,,,,,,,,,,,
,,,,,,,,,,,,,train3_audtrain2,2023-11-09_20h56.44.277,AudTraining2,2021.2.3,Win32,59.7335882,,,,,,,,,,,,,,,,,,,,,3,1.618,1,2,14,11,1,RegPatterns/20-ms_2_1_1_2_2_3_1_unit230.mp3,RegPatterns/20d-ms_2_1_1_2_2_1_3_unit230.mp3,,,,,,,,,
,,,,,,,,,,,,,train3_audtrain2,2023-11-09_20h56.44.277,AudTraining2,2021.2.3,Win32,59.7335882,,,,,,,,,,,,,,RegPatterns/29-ms_3_1_2_1_1_1_3_unit250.mp3,0,0,0,0,0,1,,,,,,,,,,,,,,,,,,
,,,,,,,,,,,,,train3_audtrain2,2023-11-09_20h56.44.277,AudTraining2,2021.2.3,Win32,59.7335882,,,,,,,,,,,,,,RegPatterns/29-ms_3_1_2_1_1_1_3_unit250.mp3,0,1,0,1,0,1,,,,,,,,,,,,,,,,,,
,,,,,,,,,,,,,train3_audtrain2,2023-11-09_20h56.44.277,AudTraining2,2021.2.3,Win32,59.7335882,,,,,,,,,,,,,,RegPatterns/29d-ms_3_1_2_1_1_3_1_unit250.mp3,3,2,0,2,0,1,,,,,,,,,,,,,,,,,,
,,,,,,,,,,,,,train3_audtrain2,2023-11-09_20h56.44.277,AudTraining2,2021.2.3,Win32,59.7335882,,,,,,,,,,,,,,,,,,,,,3,0.4372,1,3,15,9,1,RegPatterns/29-ms_3_1_2_1_1_1_3_unit250.mp3,RegPatterns/29d-ms_3_1_2_1_1_3_1_unit250.mp3,,,,,,,,,
,,,,,,,,,,,,,train3_audtrain2,2023-11-09_20h56.44.277,AudTraining2,2021.2.3,Win32,59.7335882,,,,,,,,,,,,,,RegPatterns/12-ms_3_1_1_3_2_2_unit270.mp3,0,0,0,0,0,1,,,,,,,,,,,,,,,,,,
,,,,,,,,,,,,,train3_audtrain2,2023-11-09_20h56.44.277,AudTraining2,2021.2.3,Win32,59.7335882,,,,,,,,,,,,,,RegPatterns/12-ms_3_1_1_3_2_2_unit270.mp3,0,1,0,1,0,1,,,,,,,,,,,,,,,,,,
,,,,,,,,,,,,,train3_audtrain2,2023-11-09_20h56.44.277,AudTraining2,2021.2.3,Win32,59.7335882,,,,,,,,,,,,,,RegPatterns/12d-ms_3_1_3_1_2_2_unit270.mp3,3,2,0,2,0,1,,,,,,,,,,,,,,,,,,
,,,,,,,,,,,,,train3_audtrain2,2023-11-09_20h56.44.277,AudTraining2,2021.2.3,Win32,59.7335882,,,,,,,,,,,,,,,,,,,,,1,2.8131,1,4,16,3,1,RegPatterns/12-ms_3_1_1_3_2_2_unit270.mp3,RegPatterns/12d-ms_3_1_3_1_2_2_unit270.mp3,,,,,,,,,
,,,,,,,,,,,,,train3_audtrain2,2023-11-09_20h56.44.277,AudTraining2,2021.2.3,Win32,59.7335882,,,,,,,,,,,,,,RegPatterns/30d-ms_1_3_2_2_1_1_2_unit230.mp3,1,0,0,0,0,1,,,,,,,,,,,,,,,,,,
,,,,,,,,,,,,,train3_audtrain2,2023-11-09_20h56.44.277,AudTraining2,2021.2.3,Win32,59.7335882,,,,,,,,,,,,,,RegPatterns/30-ms_3_1_2_2_1_1_2_unit230.mp3,0,1,0,1,0,1,,,,,,,,,,,,,,,,,,
,,,,,,,,,,,,,train3_audtrain2,2023-11-09_20h56.44.277,AudTraining2,2021.2.3,Win32,59.7335882,,,,,,,,,,,,,,RegPatterns/30-ms_3_1_2_2_1_1_2_unit230.mp3,0,2,0,2,0,1,,,,,,,,,,,,,,,,,,
,,,,,,,,,,,,,train3_audtrain2,2023-11-09_20h56.44.277,AudTraining2,2021.2.3,Win32,59.7335882,,,,,,,,,,,,,,,,,,,,,2,1.3221,1,5,17,10,1,RegPatterns/30-ms_3_1_2_2_1_1_2_unit230.mp3,RegPatterns/30d-ms_1_3_2_2_1_1_2_unit230.mp3,,,,,,,,,
,,,,,,,,,,,,,train3_audtrain2,2023-11-09_20h56.44.277,AudTraining2,2021.2.3,Win32,59.7335882,,,,,,,,,,,,,,RegPatterns/03-ms_3_1_4_2_2_unit270.mp3,0,0,0,0,0,1,,,,,,,,,,,,,,,,,,
,,,,,,,,,,,,,train3_audtrain2,2023-11-09_20h56.44.277,AudTraining2,2021.2.3,Win32,59.7335882,,,,,,,,,,,,,,RegPatterns/03-ms_3_1_4_2_2_unit270.mp3,0,1,0,1,0,1,,,,,,,,,,,,,,,,,,
,,,,,,,,,,,,,train3_audtrain2,2023-11-09_20h56.44.277,AudTraining2,2021.2.3,Win32,59.7335882,,,,,,,,,,,,,,RegPatterns/03d-ms_1_3_4_2_2_unit270.mp3,3,2,0,2,0,1,,,,,,,,,,,,,,,,,,
,,,,,,,,,,,,,train3_audtrain2,2023-11-09_20h56.44.277,AudTraining2,2021.2.3,Win32,59.7335882,,,,,,,,,,,,,,,,,,,,,3,0.7587,1,6,18,1,1,RegPatterns/03-ms_3_1_4_2_2_unit270.mp3,RegPatterns/03d-ms_1_3_4_2_2_unit270.mp3,,,,,,,,,
,,,,,,,,,,,,,train3_audtrain2,2023-11-09_20h56.44.277,AudTraining2,2021.2.3,Win32,59.7335882,,,,,,,,,,,,,,RegPatterns/18-ms_4_2_2_1_1_2_unit270.mp3,0,0,0,0,0,1,,,,,,,,,,,,,,,,,,
,,,,,,,,,,,,,train3_audtrain2,2023-11-09_20h56.44.277,AudTraining2,2021.2.3,Win32,59.7335882,,,,,,,,,,,,,,RegPatterns/18-ms_4_2_2_1_1_2_unit270.mp3,0,1,0,1,0,1,,,,,,,,,,,,,,,,,,
,,,,,,,,,,,,,train3_audtrain2,2023-11-09_20h56.44.277,AudTraining2,2021.2.3,Win32,59.7335882,,,,,,,,,,,,,,RegPatterns/18d-ms_4_2_2_2_1_1_unit270.mp3,3,2,0,2,0,1,,,,,,,,,,,,,,,,,,
,,,,,,,,,,,,,train3_audtrain2,2023-11-09_20h56.44.277,AudTraining2,2021.2.3,Win32,59.7335882,,,,,,,,,,,,,,,,,,,,,1,3.0964,1,7,19,6,1,RegPatterns/18-ms_4_2_2_1_1_2_unit270.mp3,RegPatterns/18d-ms_4_2_2_2_1_1_unit270.mp3,,,,,,,,,
,,,,,,,,,,,,,train3_audtrain2,2023-11-09_20h56.44.277,AudTraining2,2021.2.3,Win32,59.7335882,,,,,,,,,,,,,,RegPatterns/09-ms_2_1_1_1_3_4_unit270.mp3,0,0,0,0,0,1,,,,,,,,,,,,,,,,,,
,,,,,,,,,,,,,train3_audtrain2,2023-11-09_20h56.44.277,AudTraining2,2021.2.3,Win32,59.7335882,,,,,,,,,,,,,,RegPatterns/09d-ms_2_1_1_3_1_4_unit270.mp3,2,1,0,1,0,1,,,,,,,,,,,,,,,,,,
,,,,,,,,,,,,,train3_audtrain2,2023-11-09_20h56.44.277,AudTraining2,2021.2.3,Win32,59.7335882,,,,,,,,,,,,,,RegPatterns/09-ms_2_1_1_1_3_4_unit270.mp3,0,2,0,2,0,1,,,,,,,,,,,,,,,,,,
,,,,,,,,,,,,,train3_audtrain2,2023-11-09_20h56.44.277,AudTraining2,2021.2.3,Win32,59.7335882,,,,,,,,,,,,,,,,,,,,,3,0.1026,1,8,20,2,1,RegPatterns/09-ms_2_1_1_1_3_4_unit270.mp3,RegPatterns/09d-ms_2_1_1_3_1_4_unit270.mp3,,,,,,,,,
,,,,,,,,,,,,,train3_audtrain2,2023-11-09_20h56.44.277,AudTraining2,2021.2.3,Win32,59.7335882,,,,,,,,,,,,,,RegPatterns/19-ms_1_1_2_3_1_2_2_unit230.mp3,0,0,0,0,0,1,,,,,,,,,,,,,,,,,,
,,,,,,,,,,,,,train3_audtrain2,2023-11-09_20h56.44.277,AudTraining2,2021.2.3,Win32,59.7335882,,,,,,,,,,,,,,RegPatterns/19-ms_1_1_2_3_1_2_2_unit230.mp3,0,1,0,1,0,1,,,,,,,,,,,,,,,,,,
,,,,,,,,,,,,,train3_audtrain2,2023-11-09_20h56.44.277,AudTraining2,2021.2.3,Win32,59.7335882,,,,,,,,,,,,,,RegPatterns/19d-ms_1_1_2_1_3_2_2_unit230.mp3,3,2,0,2,0,1,,,,,,,,,,,,,,,,,,
,,,,,,,,,,,,,train3_audtrain2,2023-11-09_20h56.44.277,AudTraining2,2021.2.3,Win32,59.7335882,,,,,,,,,,,,,,,,,,,,,3,0.339,1,9,21,7,1,RegPatterns/19-ms_1_1_2_3_1_2_2_unit230.mp3,RegPatterns/19d-ms_1_1_2_1_3_2_2_unit230.mp3,,,,,,,,,
,,,,,,,,,,,,,train3_audtrain2,2023-11-09_20h56.44.277,AudTraining2,2021.2.3,Win32,59.7335882,,,,,,,,,,,,,,RegPatterns/16-ms_3_1_2_2_1_3_unit230.mp3,0,0,0,0,0,1,,,,,,,,,,,,,,,,,,
,,,,,,,,,,,,,train3_audtrain2,2023-11-09_20h56.44.277,AudTraining2,2021.2.3,Win32,59.7335882,,,,,,,,,,,,,,RegPatterns/16-ms_3_1_2_2_1_3_unit230.mp3,0,1,0,1,0,1,,,,,,,,,,,,,,,,,,
,,,,,,,,,,,,,train3_audtrain2,2023-11-09_20h56.44.277,AudTraining2,2021.2.3,Win32,59.7335882,,,,,,,,,,,,,,RegPatterns/16d-ms_3_1_2_2_3_1_unit230.mp3,3,2,0,2,0,1,,,,,,,,,,,,,,,,,,
,,,,,,,,,,,,,train3_audtrain2,2023-11-09_20h56.44.277,AudTraining2,2021.2.3,Win32,59.7335882,,,,,,,,,,,,,,,,,,,,,3,2.3179,1,10,22,5,1,RegPatterns/16-ms_3_1_2_2_1_3_unit230.mp3,RegPatterns/16d-ms_3_1_2_2_3_1_unit230.mp3,,,,,,,,,
,,,,,,,,,,,,,train3_audtrain2,2023-11-09_20h56.44.277,AudTraining2,2021.2.3,Win32,59.7335882,,,,,,,,,,,,,,RegPatterns/26-ms_1_1_2_2_1_1_4_unit250.mp3,0,0,0,0,0,1,,,,,,,,,,,,,,,,,,
,,,,,,,,,,,,,train3_audtrain2,2023-11-09_20h56.44.277,AudTraining2,2021.2.3,Win32,59.7335882,,,,,,,,,,,,,,RegPatterns/26d-ms_1_1_2_1_1_2_4_unit250.mp3,2,1,0,1,0,1,,,,,,,,,,,,,,,,,,
,,,,,,,,,,,,,train3_audtrain2,2023-11-09_20h56.44.277,AudTraining2,2021.2.3,Win32,59.7335882,,,,,,,,,,,,,,RegPatterns/26-ms_1_1_2_2_1_1_4_unit250.mp3,0,2,0,2,0,1,,,,,,,,,,,,,,,,,,
,,,,,,,,,,,,,train3_audtrain2,2023-11-09_20h56.44.277,AudTraining2,2021.2.3,Win32,59.7335882,,,,,,,,,,RegPatterns/Noise.mp3,RegPatterns/Noise.mp3,,,,,,,,,,3,0.5176,,,,,,,,g,0.4672,0,0,0,0,1,,
,,,,,,,,,,,,,train3_audtrain2,2023-11-09_20h56.44.277,AudTraining2,2021.2.3,Win32,59.7335882,,,,,,,,,,,,,,,,,,,,,,,1,11,23,8,1,RegPatterns/26-ms_1_1_2_2_1_1_4_unit250.mp3,RegPatterns/26d-ms_1_1_2_1_1_2_4_unit250.mp3,,,,,,,,,
,,,,,,,,,,,,,train3_audtrain2,2023-11-09_20h56.44.277,AudTraining2,2021.2.3,Win32,59.7335882,,,,,,,,,,,,,,RegPatterns/09d-ms_2_1_1_3_1_4_unit270.mp3,1,0,0,0,0,1,,,,,,,,,,,,,,,,,,
,,,,,,,,,,,,,train3_audtrain2,2023-11-09_20h56.44.277,AudTraining2,2021.2.3,Win32,59.7335882,,,,,,,,,,,,,,RegPatterns/09-ms_2_1_1_1_3_4_unit270.mp3,0,1,0,1,0,1,,,,,,,,,,,,,,,,,,
,,,,,,,,,,,,,train3_audtrain2,2023-11-09_20h56.44.277,AudTraining2,2021.2.3,Win32,59.7335882,,,,,,,,,,,,,,RegPatterns/09-ms_2_1_1_1_3_4_unit270.mp3,0,2,0,2,0,1,,,,,,,,,,,,,,,,,,
,,,,,,,,,,,,,train3_audtrain2,2023-11-09_20h56.44.277,AudTraining2,2021.2.3,Win32,59.7335882,,,,,,,,,,,,,,,,,,,,,1,0.3107,2,0,24,2,1,RegPatterns/09-ms_2_1_1_1_3_4_unit270.mp3,RegPatterns/09d-ms_2_1_1_3_1_4_unit270.mp3,,,,,,,,,
,,,,,,,,,,,,,train3_audtrain2,2023-11-09_20h56.44.277,AudTraining2,2021.2.3,Win32,59.7335882,,,,,,,,,,,,,,RegPatterns/18d-ms_4_2_2_2_1_1_unit270.mp3,1,0,0,0,0,1,,,,,,,,,,,,,,,,,,
,,,,,,,,,,,,,train3_audtrain2,2023-11-09_20h56.44.277,AudTraining2,2021.2.3,Win32,59.7335882,,,,,,,,,,,,,,RegPatterns/18-ms_4_2_2_1_1_2_unit270.mp3,0,1,0,1,0,1,,,,,,,,,,,,,,,,,,
,,,,,,,,,,,,,train3_audtrain2,2023-11-09_20h56.44.277,AudTraining2,2021.2.3,Win32,59.7335882,,,,,,,,,,,,,,RegPatterns/18-ms_4_2_2_1_1_2_unit270.mp3,0,2,0,2,0,1,,,,,,,,,,,,,,,,,,
,,,,,,,,,,,,,train3_audtrain2,2023-11-09_20h56.44.277,AudTraining2,2021.2.3,Win32,59.7335882,,,,,,,,,,,,,,,,,,,,,1,0.7072,2,1,25,6,1,RegPatterns/18-ms_4_2_2_1_1_2_unit270.mp3,RegPatterns/18d-ms_4_2_2_2_1_1_unit270.mp3,,,,,,,,,
,,,,,,,,,,,,,train3_audtrain2,2023-11-09_20h56.44.277,AudTraining2,2021.2.3,Win32,59.7335882,,,,,,,,,,,,,,RegPatterns/12d-ms_3_1_3_1_2_2_unit270.mp3,1,0,0,0,0,1,,,,,,,,,,,,,,,,,,
,,,,,,,,,,,,,train3_audtrain2,2023-11-09_20h56.44.277,AudTraining2,2021.2.3,Win32,59.7335882,,,,,,,,,,,,,,RegPatterns/12-ms_3_1_1_3_2_2_unit270.mp3,0,1,0,1,0,1,,,,,,,,,,,,,,,,,,
,,,,,,,,,,,,,train3_audtrain2,2023-11-09_20h56.44.277,AudTraining2,2021.2.3,Win32,59.7335882,,,,,,,,,,,,,,RegPatterns/12-ms_3_1_1_3_2_2_unit270.mp3,0,2,0,2,0,1,,,,,,,,,,,,,,,,,,
,,,,,,,,,,,,,train3_audtrain2,2023-11-09_20h56.44.277,AudTraining2,2021.2.3,Win32,59.7335882,,,,,,,,,,,,,,,,,,,,,3,0.3826,2,2,26,3,1,RegPatterns/12-ms_3_1_1_3_2_2_unit270.mp3,RegPatterns/12d-ms_3_1_3_1_2_2_unit270.mp3,,,,,,,,,
,,,,,,,,,,,,,train3_audtrain2,2023-11-09_20h56.44.277,AudTraining2,2021.2.3,Win32,59.7335882,,,,,,,,,,,,,,RegPatterns/14-ms_2_1_1_4_1_3_unit250.mp3,0,0,0,0,0,1,,,,,,,,,,,,,,,,,,
,,,,,,,,,,,,,train3_audtrain2,2023-11-09_20h56.44.277,AudTraining2,2021.2.3,Win32,59.7335882,,,,,,,,,,,,,,RegPatterns/14d-ms_2_1_1_4_3_1_unit250.mp3,2,1,0,1,0,1,,,,,,,,,,,,,,,,,,
,,,,,,,,,,,,,train3_audtrain2,2023-11-09_20h56.44.277,AudTraining2,2021.2.3,Win32,59.7335882,,,,,,,,,,,,,,RegPatterns/14-ms_2_1_1_4_1_3_unit250.mp3,0,2,0,2,0,1,,,,,,,,,,,,,,,,,,
,,,,,,,,,,,,,train3_audtrain2,2023-11-09_20h56.44.277,AudTraining2,2021.2.3,Win32,59.7335882,,,,,,,,,,,,,,,,,,,,,1,3.6529,2,3,27,4,1,RegPatterns/14-ms_2_1_1_4_1_3_unit250.mp3,RegPatterns/14d-ms_2_1_1_4_3_1_unit250.mp3,,,,,,,,,
,,,,,,,,,,,,,train3_audtrain2,2023-11-09_20h56.44.277,AudTraining2,2021.2.3,Win32,59.7335882,,,,,,,,,,,,,,RegPatterns/16d-ms_3_1_2_2_3_1_unit230.mp3,1,0,0,0,0,1,,,,,,,,,,,,,,,,,,
,,,,,,,,,,,,,train3_audtrain2,2023-11-09_20h56.44.277,AudTraining2,2021.2.3,Win32,59.7335882,,,,,,,,,,,,,,RegPatterns/16-ms_3_1_2_2_1_3_unit230.mp3,0,1,0,1,0,1,,,,,,,,,,,,,,,,,,
,,,,,,,,,,,,,train3_audtrain2,2023-11-09_20h56.44.277,AudTraining2,2021.2.3,Win32,59.7335882,,,,,,,,,,,,,,RegPatterns/16-ms_3_1_2_2_1_3_unit230.mp3,0,2,0,2,0,1,,,,,,,,,,,,,,,,,,
,,,,,,,,,,,,,train3_audtrain2,2023-11-09_20h56.44.277,AudTraining2,2021.2.3,Win32,59.7335882,,,,,,,,,,,,,,,,,,,,,3,2.1865,2,4,28,5,1,RegPatterns/16-ms_3_1_2_2_1_3_unit230.mp3,RegPatterns/16d-ms_3_1_2_2_3_1_unit230.mp3,,,,,,,,,
,,,,,,,,,,,,,train3_audtrain2,2023-11-09_20h56.44.277,AudTraining2,2021.2.3,Win32,59.7335882,,,,,,,,,,,,,,RegPatterns/30-ms_3_1_2_2_1_1_2_unit230.mp3,0,0,0,0,0,1,,,,,,,,,,,,,,,,,,
,,,,,,,,,,,,,train3_audtrain2,2023-11-09_20h56.44.277,AudTraining2,2021.2.3,Win32,59.7335882,,,,,,,,,,,,,,RegPatterns/30-ms_3_1_2_2_1_1_2_unit230.mp3,0,1,0,1,0,1,,,,,,,,,,,,,,,,,,
,,,,,,,,,,,,,train3_audtrain2,2023-11-09_20h56.44.277,AudTraining2,2021.2.3,Win32,59.7335882,,,,,,,,,,,,,,RegPatterns/30d-ms_1_3_2_2_1_1_2_unit230.mp3,3,2,0,2,0,1,,,,,,,,,,,,,,,,,,
,,,,,,,,,,,,,train3_audtrain2,2023-11-09_20h56.44.277,AudTraining2,2021.2.3,Win32,59.7335882,,,,,,,,,,,,,,,,,,,,,3,1.3251,2,5,29,10,1,RegPatterns/30-ms_3_1_2_2_1_1_2_unit230.mp3,RegPatterns/30d-ms_1_3_2_2_1_1_2_unit230.mp3,,,,,,,,,
,,,,,,,,,,,,,train3_audtrain2,2023-11-09_20h56.44.277,AudTraining2,2021.2.3,Win32,59.7335882,,,,,,,,,,,,,,RegPatterns/03d-ms_1_3_4_2_2_unit270.mp3,1,0,0,0,0,1,,,,,,,,,,,,,,,,,,
,,,,,,,,,,,,,train3_audtrain2,2023-11-09_20h56.44.277,AudTraining2,2021.2.3,Win32,59.7335882,,,,,,,,,,,,,,RegPatterns/03-ms_3_1_4_2_2_unit270.mp3,0,1,0,1,0,1,,,,,,,,,,,,,,,,,,
,,,,,,,,,,,,,train3_audtrain2,2023-11-09_20h56.44.277,AudTraining2,2021.2.3,Win32,59.7335882,,,,,,,,,,,,,,RegPatterns/03-ms_3_1_4_2_2_unit270.mp3,0,2,0,2,0,1,,,,,,,,,,,,,,,,,,
,,,,,,,,,,,,,train3_audtrain2,2023-11-09_20h56.44.277,AudTraining2,2021.2.3,Win32,59.7335882,,,,,,,,,,,,,,,,,,,,,2,8.0555,2,6,30,1,1,RegPatterns/03-ms_3_1_4_2_2_unit270.mp3,RegPatterns/03d-ms_1_3_4_2_2_unit270.mp3,,,,,,,,,
,,,,,,,,,,,,,train3_audtrain2,2023-11-09_20h56.44.277,AudTraining2,2021.2.3,Win32,59.7335882,,,,,,,,,,,,,,RegPatterns/02-ms_3_1_4_1_3_unit250.mp3,0,0,0,0,0,1,,,,,,,,,,,,,,,,,,
,,,,,,,,,,,,,train3_audtrain2,2023-11-09_20h56.44.277,AudTraining2,2021.2.3,Win32,59.7335882,,,,,,,,,,,,,,RegPatterns/02-ms_3_1_4_1_3_unit250.mp3,0,1,0,1,0,1,,,,,,,,,,,,,,,,,,
,,,,,,,,,,,,,train3_audtrain2,2023-11-09_20h56.44.277,AudTraining2,2021.2.3,Win32,59.7335882,,,,,,,,,,,,,,RegPatterns/02d-ms_3_1_4_3_1_unit250.mp3,3,2,0,2,0,1,,,,,,,,,,,,,,,,,,
,,,,,,,,,,,,,train3_audtrain2,2023-11-09_20h56.44.277,AudTraining2,2021.2.3,Win32,59.7335882,,,,,,,,,,,,,,,,,,,,,1,0.1595,2,7,31,0,1,RegPatterns/02-ms_3_1_4_1_3_unit250.mp3,RegPatterns/02d-ms_3_1_4_3_1_unit250.mp3,,,,,,,,,
,,,,,,,,,,,,,train3_audtrain2,2023-11-09_20h56.44.277,AudTraining2,2021.2.3,Win32,59.7335882,,,,,,,,,,,,,,RegPatterns/19d-ms_1_1_2_1_3_2_2_unit230.mp3,1,0,0,0,0,1,,,,,,,,,,,,,,,,,,
,,,,,,,,,,,,,train3_audtrain2,2023-11-09_20h56.44.277,AudTraining2,2021.2.3,Win32,59.7335882,,,,,,,,,,,,,,RegPatterns/19-ms_1_1_2_3_1_2_2_unit230.mp3,0,1,0,1,0,1,,,,,,,,,,,,,,,,,,
,,,,,,,,,,,,,train3_audtrain2,2023-11-09_20h56.44.277,AudTraining2,2021.2.3,Win32,59.7335882,,,,,,,,,,,,,,RegPatterns/19-ms_1_1_2_3_1_2_2_unit230.mp3,0,2,0,2,0,1,,,,,,,,,,,,,,,,,,
,,,,,,,,,,,,,train3_audtrain2,2023-11-09_20h56.44.277,AudTraining2,2021.2.3,Win32,59.7335882,,,,,,,,,,,,,,,,,,,,,2,47.3707,2,8,32,7,1,RegPatterns/19-ms_1_1_2_3_1_2_2_unit230.mp3,RegPatterns/19d-ms_1_1_2_1_3_2_2_unit230.mp3,,,,,,,,,
,,,,,,,,,,,,,train3_audtrain2,2023-11-09_20h56.44.277,AudTraining2,2021.2.3,Win32,59.7335882,,,,,,,,,,,,,,RegPatterns/26-ms_1_1_2_2_1_1_4_unit250.mp3,0,0,0,0,0,1,,,,,,,,,,,,,,,,,,
,,,,,,,,,,,,,train3_audtrain2,2023-11-09_20h56.44.277,AudTraining2,2021.2.3,Win32,59.7335882,,,,,,,,,,,,,,RegPatterns/26-ms_1_1_2_2_1_1_4_unit250.mp3,0,1,0,1,0,1,,,,,,,,,,,,,,,,,,
,,,,,,,,,,,,,train3_audtrain2,2023-11-09_20h56.44.277,AudTraining2,2021.2.3,Win32,59.7335882,,,,,,,,,,,,,,RegPatterns/26d-ms_1_1_2_1_1_2_4_unit250.mp3,3,2,0,2,0,1,,,,,,,,,,,,,,,,,,
,,,,,,,,,,,,,train3_audtrain2,2023-11-09_20h56.44.277,AudTraining2,2021.2.3,Win32,59.7335882,,,,,,,,,,,,,,,,,,,,,2,19.8849,2,9,33,8,1,RegPatterns/26-ms_1_1_2_2_1_1_4_unit250.mp3,RegPatterns/26d-ms_1_1_2_1_1_2_4_unit250.mp3,,,,,,,,,
,,,,,,,,,,,,,train3_audtrain2,2023-11-09_20h56.44.277,AudTraining2,2021.2.3,Win32,59.7335882,,,,,,,,,,,,,,RegPatterns/29-ms_3_1_2_1_1_1_3_unit250.mp3,0,0,0,0,0,1,,,,,,,,,,,,,,,,,,
,,,,,,,,,,,,,train3_audtrain2,2023-11-09_20h56.44.277,AudTraining2,2021.2.3,Win32,59.7335882,,,,,,,,,,,,,,RegPatterns/29d-ms_3_1_2_1_1_3_1_unit250.mp3,2,1,0,1,0,1,,,,,,,,,,,,,,,,,,
,,,,,,,,,,,,,train3_audtrain2,2023-11-09_20h56.44.277,AudTraining2,2021.2.3,Win32,59.7335882,,,,,,,,,,,,,,RegPatterns/29-ms_3_1_2_1_1_1_3_unit250.mp3,0,2,0,2,0,1,,,,,,,,,,,,,,,,,,
,,,,,,,,,,,,,train3_audtrain2,2023-11-09_20h56.44.277,AudTraining2,2021.2.3,Win32,59.7335882,,,,,,,,,,,,,,,,,,,,,1,1.5587,2,10,34,9,1,RegPatterns/29-ms_3_1_2_1_1_1_3_unit250.mp3,RegPatterns/29d-ms_3_1_2_1_1_3_1_unit250.mp3,,,,,,,,,
,,,,,,,,,,,,,train3_audtrain2,2023-11-09_20h56.44.277,AudTraining2,2021.2.3,Win32,59.7335882,,,,,,,,,,,,,,RegPatterns/20d-ms_2_1_1_2_2_1_3_unit230.mp3,1,0,0,0,0,1,,,,,,,,,,,,,,,,,,
,,,,,,,,,,,,,train3_audtrain2,2023-11-09_20h56.44.277,AudTraining2,2021.2.3,Win32,59.7335882,,,,,,,,,,,,,,RegPatterns/20-ms_2_1_1_2_2_3_1_unit230.mp3,0,1,0,1,0,1,,,,,,,,,,,,,,,,,,
,,,,,,,,,,,,,train3_audtrain2,2023-11-09_20h56.44.277,AudTraining2,2021.2.3,Win32,59.7335882,,,,,,,,,,,,,,RegPatterns/20-ms_2_1_1_2_2_3_1_unit230.mp3,0,2,0,2,0,1,,,,,,,,,,,,,,,,,,
,,,,,,,,,,,,,train3_audtrain2,2023-11-09_20h56.44.277,AudTraining2,2021.2.3,Win32,59.7335882,,,,,,,,,,,,,,,,,,,,,3,1.4209,2,11,35,11,1,RegPatterns/20-ms_2_1_1_2_2_3_1_unit230.mp3,RegPatterns/20d-ms_2_1_1_2_2_1_3_unit230.mp3,,,,,,,,,
,,,,,,,,,,,,,train3_audtrain2,2023-11-09_20h56.44.277,AudTraining2,2021.2.3,Win32,59.7335882,,,,,,,,,,,,,,,,,,,,,,,,,,,,,,,,,,,,,space,1.6581
