key_resp.keys,key_resp.rt,key_resp_2.keys,key_resp_2.rt,key_resp_3.keys,key_resp_3.rt,trials.thisRepN,trials.thisTrialN,trials.thisN,trials.thisIndex,trials.ran,volstandard,voldeviant,participant,date,expName,psychopyVersion,OS,frameRate,key_resp_4.keys,key_resp_4.rt,key_resp_5.keys,key_resp_5.rt,trials_2.thisRepN,trials_2.thisTrialN,trials_2.thisN,trials_2.thisIndex,trials_2.ran,RegStandardPitch,RegDeviantPitch,key_resp_6.keys,key_resp_6.rt,RegAudSequence,diff-reg,trials_3.thisRepN,trials_3.thisTrialN,trials_3.thisN,trials_3.thisIndex,trials_3.ran,key_resp_7.keys,key_resp_7.rt,trials_5.thisRepN,trials_5.thisTrialN,trials_5.thisN,trials_5.thisIndex,trials_5.ran,standard,devient,key_resp_8.keys,key_resp_8.rt,trials_4.thisRepN,trials_4.thisTrialN,trials_4.thisN,trials_4.thisIndex,trials_4.ran,key_resp_9.keys,key_resp_9.rt
space,10.9736,space,1.1116,space,8.2222,0,0,0,0,1,RegPatterns/01-ms_2_2_4_1_3_unit230.mp3,RegPatterns/01d-ms_2_2_4_3_1_unit230.mp3,train3_audtrain2,2023-11-14_19h31.33.653,AudTraining2,2021.2.3,Win32,59.65163445,,,,,,,,,,,,,,,,,,,,,,,,,,,,,,,,,,,,,,
,,,,,,,,,,,,,train3_audtrain2,2023-11-14_19h31.33.653,AudTraining2,2021.2.3,Win32,59.65163445,space,1.6582,g,33.6216,0,0,0,0,1,RegPatterns/Noise.mp3,RegPatterns/Noise.mp3,,,,,,,,,,,,,,,,,,,,,,,,,,,
,,,,,,,,,,,,,train3_audtrain2,2023-11-14_19h31.33.653,AudTraining2,2021.2.3,Win32,59.65163445,,,,,,,,,,,,space,1.3957,RegPatterns/29-ms_3_1_2_1_1_1_3_unit250.mp3,0,0,0,0,0,1,,,,,,,,,,,,,,,,,,
,,,,,,,,,,,,,train3_audtrain2,2023-11-14_19h31.33.653,AudTraining2,2021.2.3,Win32,59.65163445,,,,,,,,,,,,,,RegPatterns/29d-ms_3_1_2_1_1_3_1_unit250.mp3,2,1,0,1,0,1,,,,,,,,,,,,,,,,,,
,,,,,,,,,,,,,train3_audtrain2,2023-11-14_19h31.33.653,AudTraining2,2021.2.3,Win32,59.65163445,,,,,,,,,,,,,,RegPatterns/29-ms_3_1_2_1_1_1_3_unit250.mp3,0,2,0,2,0,1,,,,,,,,,,,,,,,,,,
,,,,,,,,,,,,,train3_audtrain2,2023-11-14_19h31.33.653,AudTraining2,2021.2.3,Win32,59.65163445,,,,,,,,,,,,,,,,,,,,,3,1.0948,0,0,0,9,1,RegPatterns/29-ms_3_1_2_1_1_1_3_unit250.mp3,RegPatterns/29d-ms_3_1_2_1_1_3_1_unit250.mp3,,,,,,,,,
,,,,,,,,,,,,,train3_audtrain2,2023-11-14_19h31.33.653,AudTraining2,2021.2.3,Win32,59.65163445,,,,,,,,,,,,,,RegPatterns/14d-ms_2_1_1_4_3_1_unit250.mp3,1,0,0,0,0,1,,,,,,,,,,,,,,,,,,
,,,,,,,,,,,,,train3_audtrain2,2023-11-14_19h31.33.653,AudTraining2,2021.2.3,Win32,59.65163445,,,,,,,,,,,,,,RegPatterns/14-ms_2_1_1_4_1_3_unit250.mp3,0,1,0,1,0,1,,,,,,,,,,,,,,,,,,
,,,,,,,,,,,,,train3_audtrain2,2023-11-14_19h31.33.653,AudTraining2,2021.2.3,Win32,59.65163445,,,,,,,,,,,,,,RegPatterns/14-ms_2_1_1_4_1_3_unit250.mp3,0,2,0,2,0,1,,,,,,,,,,,,,,,,,,
,,,,,,,,,,,,,train3_audtrain2,2023-11-14_19h31.33.653,AudTraining2,2021.2.3,Win32,59.65163445,,,,,,,,,,,,,,,,,,,,,3,0.5257,0,1,1,4,1,RegPatterns/14-ms_2_1_1_4_1_3_unit250.mp3,RegPatterns/14d-ms_2_1_1_4_3_1_unit250.mp3,,,,,,,,,
,,,,,,,,,,,,,train3_audtrain2,2023-11-14_19h31.33.653,AudTraining2,2021.2.3,Win32,59.65163445,,,,,,,,,,,,,,RegPatterns/20-ms_2_1_1_2_2_3_1_unit230.mp3,0,0,0,0,0,1,,,,,,,,,,,,,,,,,,
,,,,,,,,,,,,,train3_audtrain2,2023-11-14_19h31.33.653,AudTraining2,2021.2.3,Win32,59.65163445,,,,,,,,,,,,,,RegPatterns/20-ms_2_1_1_2_2_3_1_unit230.mp3,0,1,0,1,0,1,,,,,,,,,,,,,,,,,,
,,,,,,,,,,,,,train3_audtrain2,2023-11-14_19h31.33.653,AudTraining2,2021.2.3,Win32,59.65163445,,,,,,,,,,,,,,RegPatterns/20d-ms_2_1_1_2_2_1_3_unit230.mp3,3,2,0,2,0,1,,,,,,,,,,,,,,,,,,
,,,,,,,,,,,,,train3_audtrain2,2023-11-14_19h31.33.653,AudTraining2,2021.2.3,Win32,59.65163445,,,,,,,,,,,,,,,,,,,,,1,170.3652,0,2,2,11,1,RegPatterns/20-ms_2_1_1_2_2_3_1_unit230.mp3,RegPatterns/20d-ms_2_1_1_2_2_1_3_unit230.mp3,,,,,,,,,
,,,,,,,,,,,,,train3_audtrain2,2023-11-14_19h31.33.653,AudTraining2,2021.2.3,Win32,59.65163445,,,,,,,,,,,,,,RegPatterns/02-ms_3_1_4_1_3_unit250.mp3,0,0,0,0,0,1,,,,,,,,,,,,,,,,,,
,,,,,,,,,,,,,train3_audtrain2,2023-11-14_19h31.33.653,AudTraining2,2021.2.3,Win32,59.65163445,,,,,,,,,,,,,,RegPatterns/02d-ms_3_1_4_3_1_unit250.mp3,2,1,0,1,0,1,,,,,,,,,,,,,,,,,,
,,,,,,,,,,,,,train3_audtrain2,2023-11-14_19h31.33.653,AudTraining2,2021.2.3,Win32,59.65163445,,,,,,,,,,,,,,RegPatterns/02-ms_3_1_4_1_3_unit250.mp3,0,2,0,2,0,1,,,,,,,,,,,,,,,,,,
,,,,,,,,,,,,,train3_audtrain2,2023-11-14_19h31.33.653,AudTraining2,2021.2.3,Win32,59.65163445,,,,,,,,,,,,,,,,,,,,,2,99.2349,0,3,3,0,1,RegPatterns/02-ms_3_1_4_1_3_unit250.mp3,RegPatterns/02d-ms_3_1_4_3_1_unit250.mp3,,,,,,,,,
,,,,,,,,,,,,,train3_audtrain2,2023-11-14_19h31.33.653,AudTraining2,2021.2.3,Win32,59.65163445,,,,,,,,,,,,,,RegPatterns/19d-ms_1_1_2_1_3_2_2_unit230.mp3,1,0,0,0,0,1,,,,,,,,,,,,,,,,,,
,,,,,,,,,,,,,train3_audtrain2,2023-11-14_19h31.33.653,AudTraining2,2021.2.3,Win32,59.65163445,,,,,,,,,,,,,,RegPatterns/19-ms_1_1_2_3_1_2_2_unit230.mp3,0,1,0,1,0,1,,,,,,,,,,,,,,,,,,
,,,,,,,,,,,,,train3_audtrain2,2023-11-14_19h31.33.653,AudTraining2,2021.2.3,Win32,59.65163445,,,,,,,,,,,,,,RegPatterns/19-ms_1_1_2_3_1_2_2_unit230.mp3,0,2,0,2,0,1,,,,,,,,,,,,,,,,,,
,,,,,,,,,,,,,train3_audtrain2,2023-11-14_19h31.33.653,AudTraining2,2021.2.3,Win32,59.65163445,,,,,,,,,,,,,,,,,,,,,1,0.6443,0,4,4,7,1,RegPatterns/19-ms_1_1_2_3_1_2_2_unit230.mp3,RegPatterns/19d-ms_1_1_2_1_3_2_2_unit230.mp3,,,,,,,,,
,,,,,,,,,,,,,train3_audtrain2,2023-11-14_19h31.33.653,AudTraining2,2021.2.3,Win32,59.65163445,,,,,,,,,,,,,,RegPatterns/30-ms_3_1_2_2_1_1_2_unit230.mp3,0,0,0,0,0,1,,,,,,,,,,,,,,,,,,
,,,,,,,,,,,,,train3_audtrain2,2023-11-14_19h31.33.653,AudTraining2,2021.2.3,Win32,59.65163445,,,,,,,,,,,,,,RegPatterns/30-ms_3_1_2_2_1_1_2_unit230.mp3,0,1,0,1,0,1,,,,,,,,,,,,,,,,,,
,,,,,,,,,,,,,train3_audtrain2,2023-11-14_19h31.33.653,AudTraining2,2021.2.3,Win32,59.65163445,,,,,,,,,,,,,,RegPatterns/30d-ms_1_3_2_2_1_1_2_unit230.mp3,3,2,0,2,0,1,,,,,,,,,,,,,,,,,,
,,,,,,,,,,,,,train3_audtrain2,2023-11-14_19h31.33.653,AudTraining2,2021.2.3,Win32,59.65163445,,,,,,,,,,,,,,,,,,,,,2,52.4845,0,5,5,10,1,RegPatterns/30-ms_3_1_2_2_1_1_2_unit230.mp3,RegPatterns/30d-ms_1_3_2_2_1_1_2_unit230.mp3,,,,,,,,,
,,,,,,,,,,,,,train3_audtrain2,2023-11-14_19h31.33.653,AudTraining2,2021.2.3,Win32,59.65163445,,,,,,,,,,,,,,RegPatterns/18d-ms_4_2_2_2_1_1_unit270.mp3,1,0,0,0,0,1,,,,,,,,,,,,,,,,,,
,,,,,,,,,,,,,train3_audtrain2,2023-11-14_19h31.33.653,AudTraining2,2021.2.3,Win32,59.65163445,,,,,,,,,,,,,,RegPatterns/18-ms_4_2_2_1_1_2_unit270.mp3,0,1,0,1,0,1,,,,,,,,,,,,,,,,,,
,,,,,,,,,,,,,train3_audtrain2,2023-11-14_19h31.33.653,AudTraining2,2021.2.3,Win32,59.65163445,,,,,,,,,,,,,,RegPatterns/18-ms_4_2_2_1_1_2_unit270.mp3,0,2,0,2,0,1,,,,,,,,,,,,,,,,,,
,,,,,,,,,,,,,train3_audtrain2,2023-11-14_19h31.33.653,AudTraining2,2021.2.3,Win32,59.65163445,,,,,,,,,,,,,,,,,,,,,1,1.4925,0,6,6,6,1,RegPatterns/18-ms_4_2_2_1_1_2_unit270.mp3,RegPatterns/18d-ms_4_2_2_2_1_1_unit270.mp3,,,,,,,,,
,,,,,,,,,,,,,train3_audtrain2,2023-11-14_19h31.33.653,AudTraining2,2021.2.3,Win32,59.65163445,,,,,,,,,,,,,,RegPatterns/16-ms_3_1_2_2_1_3_unit230.mp3,0,0,0,0,0,1,,,,,,,,,,,,,,,,,,
,,,,,,,,,,,,,train3_audtrain2,2023-11-14_19h31.33.653,AudTraining2,2021.2.3,Win32,59.65163445,,,,,,,,,,,,,,RegPatterns/16-ms_3_1_2_2_1_3_unit230.mp3,0,1,0,1,0,1,,,,,,,,,,,,,,,,,,
,,,,,,,,,,,,,train3_audtrain2,2023-11-14_19h31.33.653,AudTraining2,2021.2.3,Win32,59.65163445,,,,,,,,,,,,,,RegPatterns/16d-ms_3_1_2_2_3_1_unit230.mp3,3,2,0,2,0,1,,,,,,,,,,,,,,,,,,
,,,,,,,,,,,,,train3_audtrain2,2023-11-14_19h31.33.653,AudTraining2,2021.2.3,Win32,59.65163445,,,,,,,,,,,,,,,,,,,,,1,24.1568,0,7,7,5,1,RegPatterns/16-ms_3_1_2_2_1_3_unit230.mp3,RegPatterns/16d-ms_3_1_2_2_3_1_unit230.mp3,,,,,,,,,
,,,,,,,,,,,,,train3_audtrain2,2023-11-14_19h31.33.653,AudTraining2,2021.2.3,Win32,59.65163445,,,,,,,,,,,,,,RegPatterns/12d-ms_3_1_3_1_2_2_unit270.mp3,1,0,0,0,0,1,,,,,,,,,,,,,,,,,,
,,,,,,,,,,,,,train3_audtrain2,2023-11-14_19h31.33.653,AudTraining2,2021.2.3,Win32,59.65163445,,,,,,,,,,,,,,RegPatterns/12-ms_3_1_1_3_2_2_unit270.mp3,0,1,0,1,0,1,,,,,,,,,,,,,,,,,,
,,,,,,,,,,,,,train3_audtrain2,2023-11-14_19h31.33.653,AudTraining2,2021.2.3,Win32,59.65163445,,,,,,,,,,,,,,RegPatterns/12-ms_3_1_1_3_2_2_unit270.mp3,0,2,0,2,0,1,,,,,,,,,,,,,,,,,,
,,,,,,,,,,,,,train3_audtrain2,2023-11-14_19h31.33.653,AudTraining2,2021.2.3,Win32,59.65163445,,,,,,,,,,,,,,,,,,,,,3,2.2956,0,8,8,3,1,RegPatterns/12-ms_3_1_1_3_2_2_unit270.mp3,RegPatterns/12d-ms_3_1_3_1_2_2_unit270.mp3,,,,,,,,,
,,,,,,,,,,,,,train3_audtrain2,2023-11-14_19h31.33.653,AudTraining2,2021.2.3,Win32,59.65163445,,,,,,,,,,,,,,RegPatterns/03-ms_3_1_4_2_2_unit270.mp3,0,0,0,0,0,1,,,,,,,,,,,,,,,,,,
,,,,,,,,,,,,,train3_audtrain2,2023-11-14_19h31.33.653,AudTraining2,2021.2.3,Win32,59.65163445,,,,,,,,,,,,,,RegPatterns/03-ms_3_1_4_2_2_unit270.mp3,0,1,0,1,0,1,,,,,,,,,,,,,,,,,,
,,,,,,,,,,,,,train3_audtrain2,2023-11-14_19h31.33.653,AudTraining2,2021.2.3,Win32,59.65163445,,,,,,,,,,,,,,RegPatterns/03d-ms_1_3_4_2_2_unit270.mp3,3,2,0,2,0,1,,,,,,,,,,,,,,,,,,
,,,,,,,,,,,,,train3_audtrain2,2023-11-14_19h31.33.653,AudTraining2,2021.2.3,Win32,59.65163445,,,,,,,,,,,,,,,,,,,,,3,1.3831,0,9,9,1,1,RegPatterns/03-ms_3_1_4_2_2_unit270.mp3,RegPatterns/03d-ms_1_3_4_2_2_unit270.mp3,,,,,,,,,
,,,,,,,,,,,,,train3_audtrain2,2023-11-14_19h31.33.653,AudTraining2,2021.2.3,Win32,59.65163445,,,,,,,,,,,,,,RegPatterns/09d-ms_2_1_1_3_1_4_unit270.mp3,1,0,0,0,0,1,,,,,,,,,,,,,,,,,,
,,,,,,,,,,,,,train3_audtrain2,2023-11-14_19h31.33.653,AudTraining2,2021.2.3,Win32,59.65163445,,,,,,,,,,,,,,RegPatterns/09-ms_2_1_1_1_3_4_unit270.mp3,0,1,0,1,0,1,,,,,,,,,,,,,,,,,,
,,,,,,,,,,,,,train3_audtrain2,2023-11-14_19h31.33.653,AudTraining2,2021.2.3,Win32,59.65163445,,,,,,,,,,,,,,RegPatterns/09-ms_2_1_1_1_3_4_unit270.mp3,0,2,0,2,0,1,,,,,,,,,,,,,,,,,,
,,,,,,,,,,,,,train3_audtrain2,2023-11-14_19h31.33.653,AudTraining2,2021.2.3,Win32,59.65163445,,,,,,,,,,RegPatterns/Noise.mp3,RegPatterns/Noise.mp3,,,,,,,,,,1,0.3999,,,,,,,,g,1.3239,0,0,0,0,1,,
,,,,,,,,,,,,,train3_audtrain2,2023-11-14_19h31.33.653,AudTraining2,2021.2.3,Win32,59.65163445,,,,,,,,,,,,,,,,,,,,,,,0,10,10,2,1,RegPatterns/09-ms_2_1_1_1_3_4_unit270.mp3,RegPatterns/09d-ms_2_1_1_3_1_4_unit270.mp3,,,,,,,,,
,,,,,,,,,,,,,train3_audtrain2,2023-11-14_19h31.33.653,AudTraining2,2021.2.3,Win32,59.65163445,,,,,,,,,,,,,,RegPatterns/26d-ms_1_1_2_1_1_2_4_unit250.mp3,1,0,0,0,0,1,,,,,,,,,,,,,,,,,,
,,,,,,,,,,,,,train3_audtrain2,2023-11-14_19h31.33.653,AudTraining2,2021.2.3,Win32,59.65163445,,,,,,,,,,,,,,RegPatterns/26-ms_1_1_2_2_1_1_4_unit250.mp3,0,1,0,1,0,1,,,,,,,,,,,,,,,,,,
,,,,,,,,,,,,,train3_audtrain2,2023-11-14_19h31.33.653,AudTraining2,2021.2.3,Win32,59.65163445,,,,,,,,,,,,,,RegPatterns/26-ms_1_1_2_2_1_1_4_unit250.mp3,0,2,0,2,0,1,,,,,,,,,,,,,,,,,,
,,,,,,,,,,,,,train3_audtrain2,2023-11-14_19h31.33.653,AudTraining2,2021.2.3,Win32,59.65163445,,,,,,,,,,,,,,,,,,,,,3,6.5582,0,11,11,8,1,RegPatterns/26-ms_1_1_2_2_1_1_4_unit250.mp3,RegPatterns/26d-ms_1_1_2_1_1_2_4_unit250.mp3,,,,,,,,,
,,,,,,,,,,,,,train3_audtrain2,2023-11-14_19h31.33.653,AudTraining2,2021.2.3,Win32,59.65163445,,,,,,,,,,,,,,RegPatterns/12-ms_3_1_1_3_2_2_unit270.mp3,0,0,0,0,0,1,,,,,,,,,,,,,,,,,,
,,,,,,,,,,,,,train3_audtrain2,2023-11-14_19h31.33.653,AudTraining2,2021.2.3,Win32,59.65163445,,,,,,,,,,,,,,RegPatterns/12d-ms_3_1_3_1_2_2_unit270.mp3,2,1,0,1,0,1,,,,,,,,,,,,,,,,,,
,,,,,,,,,,,,,train3_audtrain2,2023-11-14_19h31.33.653,AudTraining2,2021.2.3,Win32,59.65163445,,,,,,,,,,,,,,RegPatterns/12-ms_3_1_1_3_2_2_unit270.mp3,0,2,0,2,0,1,,,,,,,,,,,,,,,,,,
,,,,,,,,,,,,,train3_audtrain2,2023-11-14_19h31.33.653,AudTraining2,2021.2.3,Win32,59.65163445,,,,,,,,,,,,,,,,,,,,,1,3.7596,1,0,12,3,1,RegPatterns/12-ms_3_1_1_3_2_2_unit270.mp3,RegPatterns/12d-ms_3_1_3_1_2_2_unit270.mp3,,,,,,,,,
,,,,,,,,,,,,,train3_audtrain2,2023-11-14_19h31.33.653,AudTraining2,2021.2.3,Win32,59.65163445,,,,,,,,,,,,,,RegPatterns/16d-ms_3_1_2_2_3_1_unit230.mp3,1,0,0,0,0,1,,,,,,,,,,,,,,,,,,
,,,,,,,,,,,,,train3_audtrain2,2023-11-14_19h31.33.653,AudTraining2,2021.2.3,Win32,59.65163445,,,,,,,,,,,,,,RegPatterns/16-ms_3_1_2_2_1_3_unit230.mp3,0,1,0,1,0,1,,,,,,,,,,,,,,,,,,
,,,,,,,,,,,,,train3_audtrain2,2023-11-14_19h31.33.653,AudTraining2,2021.2.3,Win32,59.65163445,,,,,,,,,,,,,,RegPatterns/16-ms_3_1_2_2_1_3_unit230.mp3,0,2,0,2,0,1,,,,,,,,,,,,,,,,,,
,,,,,,,,,,,,,train3_audtrain2,2023-11-14_19h31.33.653,AudTraining2,2021.2.3,Win32,59.65163445,,,,,,,,,,,,,,,,,,,,,1,14.4965,1,1,13,5,1,RegPatterns/16-ms_3_1_2_2_1_3_unit230.mp3,RegPatterns/16d-ms_3_1_2_2_3_1_unit230.mp3,,,,,,,,,
,,,,,,,,,,,,,train3_audtrain2,2023-11-14_19h31.33.653,AudTraining2,2021.2.3,Win32,59.65163445,,,,,,,,,,,,,,RegPatterns/18-ms_4_2_2_1_1_2_unit270.mp3,0,0,0,0,0,1,,,,,,,,,,,,,,,,,,
,,,,,,,,,,,,,train3_audtrain2,2023-11-14_19h31.33.653,AudTraining2,2021.2.3,Win32,59.65163445,,,,,,,,,,,,,,RegPatterns/18-ms_4_2_2_1_1_2_unit270.mp3,0,1,0,1,0,1,,,,,,,,,,,,,,,,,,
,,,,,,,,,,,,,train3_audtrain2,2023-11-14_19h31.33.653,AudTraining2,2021.2.3,Win32,59.65163445,,,,,,,,,,,,,,RegPatterns/18d-ms_4_2_2_2_1_1_unit270.mp3,3,2,0,2,0,1,,,,,,,,,,,,,,,,,,
,,,,,,,,,,,,,train3_audtrain2,2023-11-14_19h31.33.653,AudTraining2,2021.2.3,Win32,59.65163445,,,,,,,,,,,,,,,,,,,,,3,1.0837,1,2,14,6,1,RegPatterns/18-ms_4_2_2_1_1_2_unit270.mp3,RegPatterns/18d-ms_4_2_2_2_1_1_unit270.mp3,,,,,,,,,
,,,,,,,,,,,,,train3_audtrain2,2023-11-14_19h31.33.653,AudTraining2,2021.2.3,Win32,59.65163445,,,,,,,,,,,,,,RegPatterns/02-ms_3_1_4_1_3_unit250.mp3,0,0,0,0,0,1,,,,,,,,,,,,,,,,,,
,,,,,,,,,,,,,train3_audtrain2,2023-11-14_19h31.33.653,AudTraining2,2021.2.3,Win32,59.65163445,,,,,,,,,,,,,,RegPatterns/02-ms_3_1_4_1_3_unit250.mp3,0,1,0,1,0,1,,,,,,,,,,,,,,,,,,
,,,,,,,,,,,,,train3_audtrain2,2023-11-14_19h31.33.653,AudTraining2,2021.2.3,Win32,59.65163445,,,,,,,,,,,,,,RegPatterns/02d-ms_3_1_4_3_1_unit250.mp3,3,2,0,2,0,1,,,,,,,,,,,,,,,,,,
,,,,,,,,,,,,,train3_audtrain2,2023-11-14_19h31.33.653,AudTraining2,2021.2.3,Win32,59.65163445,,,,,,,,,,,,,,,,,,,,,2,1.184,1,3,15,0,1,RegPatterns/02-ms_3_1_4_1_3_unit250.mp3,RegPatterns/02d-ms_3_1_4_3_1_unit250.mp3,,,,,,,,,
,,,,,,,,,,,,,train3_audtrain2,2023-11-14_19h31.33.653,AudTraining2,2021.2.3,Win32,59.65163445,,,,,,,,,,,,,,RegPatterns/19-ms_1_1_2_3_1_2_2_unit230.mp3,0,0,0,0,0,1,,,,,,,,,,,,,,,,,,
,,,,,,,,,,,,,train3_audtrain2,2023-11-14_19h31.33.653,AudTraining2,2021.2.3,Win32,59.65163445,,,,,,,,,,,,,,RegPatterns/19d-ms_1_1_2_1_3_2_2_unit230.mp3,2,1,0,1,0,1,,,,,,,,,,,,,,,,,,
,,,,,,,,,,,,,train3_audtrain2,2023-11-14_19h31.33.653,AudTraining2,2021.2.3,Win32,59.65163445,,,,,,,,,,,,,,RegPatterns/19-ms_1_1_2_3_1_2_2_unit230.mp3,0,2,0,2,0,1,,,,,,,,,,,,,,,,,,
,,,,,,,,,,,,,train3_audtrain2,2023-11-14_19h31.33.653,AudTraining2,2021.2.3,Win32,59.65163445,,,,,,,,,,,,,,,,,,,,,1,15.517,1,4,16,7,1,RegPatterns/19-ms_1_1_2_3_1_2_2_unit230.mp3,RegPatterns/19d-ms_1_1_2_1_3_2_2_unit230.mp3,,,,,,,,,
,,,,,,,,,,,,,train3_audtrain2,2023-11-14_19h31.33.653,AudTraining2,2021.2.3,Win32,59.65163445,,,,,,,,,,,,,,RegPatterns/03d-ms_1_3_4_2_2_unit270.mp3,1,0,0,0,0,1,,,,,,,,,,,,,,,,,,
,,,,,,,,,,,,,train3_audtrain2,2023-11-14_19h31.33.653,AudTraining2,2021.2.3,Win32,59.65163445,,,,,,,,,,,,,,RegPatterns/03-ms_3_1_4_2_2_unit270.mp3,0,1,0,1,0,1,,,,,,,,,,,,,,,,,,
,,,,,,,,,,,,,train3_audtrain2,2023-11-14_19h31.33.653,AudTraining2,2021.2.3,Win32,59.65163445,,,,,,,,,,,,,,RegPatterns/03-ms_3_1_4_2_2_unit270.mp3,0,2,0,2,0,1,,,,,,,,,,,,,,,,,,
,,,,,,,,,,,,,train3_audtrain2,2023-11-14_19h31.33.653,AudTraining2,2021.2.3,Win32,59.65163445,,,,,,,,,,,,,,,,,,,,,2,2.7688,1,5,17,1,1,RegPatterns/03-ms_3_1_4_2_2_unit270.mp3,RegPatterns/03d-ms_1_3_4_2_2_unit270.mp3,,,,,,,,,
,,,,,,,,,,,,,train3_audtrain2,2023-11-14_19h31.33.653,AudTraining2,2021.2.3,Win32,59.65163445,,,,,,,,,,,,,,RegPatterns/20d-ms_2_1_1_2_2_1_3_unit230.mp3,1,0,0,0,0,1,,,,,,,,,,,,,,,,,,
,,,,,,,,,,,,,train3_audtrain2,2023-11-14_19h31.33.653,AudTraining2,2021.2.3,Win32,59.65163445,,,,,,,,,,,,,,RegPatterns/20-ms_2_1_1_2_2_3_1_unit230.mp3,0,1,0,1,0,1,,,,,,,,,,,,,,,,,,
,,,,,,,,,,,,,train3_audtrain2,2023-11-14_19h31.33.653,AudTraining2,2021.2.3,Win32,59.65163445,,,,,,,,,,,,,,RegPatterns/20-ms_2_1_1_2_2_3_1_unit230.mp3,0,2,0,2,0,1,,,,,,,,,,,,,,,,,,
,,,,,,,,,,,,,train3_audtrain2,2023-11-14_19h31.33.653,AudTraining2,2021.2.3,Win32,59.65163445,,,,,,,,,,,,,,,,,,,,,3,0.4331,1,6,18,11,1,RegPatterns/20-ms_2_1_1_2_2_3_1_unit230.mp3,RegPatterns/20d-ms_2_1_1_2_2_1_3_unit230.mp3,,,,,,,,,
,,,,,,,,,,,,,train3_audtrain2,2023-11-14_19h31.33.653,AudTraining2,2021.2.3,Win32,59.65163445,,,,,,,,,,,,,,RegPatterns/30-ms_3_1_2_2_1_1_2_unit230.mp3,0,0,0,0,0,1,,,,,,,,,,,,,,,,,,
,,,,,,,,,,,,,train3_audtrain2,2023-11-14_19h31.33.653,AudTraining2,2021.2.3,Win32,59.65163445,,,,,,,,,,,,,,RegPatterns/30d-ms_1_3_2_2_1_1_2_unit230.mp3,2,1,0,1,0,1,,,,,,,,,,,,,,,,,,
,,,,,,,,,,,,,train3_audtrain2,2023-11-14_19h31.33.653,AudTraining2,2021.2.3,Win32,59.65163445,,,,,,,,,,,,,,RegPatterns/30-ms_3_1_2_2_1_1_2_unit230.mp3,0,2,0,2,0,1,,,,,,,,,,,,,,,,,,
,,,,,,,,,,,,,train3_audtrain2,2023-11-14_19h31.33.653,AudTraining2,2021.2.3,Win32,59.65163445,,,,,,,,,,,,,,,,,,,,,1,0.311,1,7,19,10,1,RegPatterns/30-ms_3_1_2_2_1_1_2_unit230.mp3,RegPatterns/30d-ms_1_3_2_2_1_1_2_unit230.mp3,,,,,,,,,
,,,,,,,,,,,,,train3_audtrain2,2023-11-14_19h31.33.653,AudTraining2,2021.2.3,Win32,59.65163445,,,,,,,,,,,,,,RegPatterns/14-ms_2_1_1_4_1_3_unit250.mp3,0,0,0,0,0,1,,,,,,,,,,,,,,,,,,
,,,,,,,,,,,,,train3_audtrain2,2023-11-14_19h31.33.653,AudTraining2,2021.2.3,Win32,59.65163445,,,,,,,,,,,,,,RegPatterns/14d-ms_2_1_1_4_3_1_unit250.mp3,2,1,0,1,0,1,,,,,,,,,,,,,,,,,,
,,,,,,,,,,,,,train3_audtrain2,2023-11-14_19h31.33.653,AudTraining2,2021.2.3,Win32,59.65163445,,,,,,,,,,,,,,RegPatterns/14-ms_2_1_1_4_1_3_unit250.mp3,0,2,0,2,0,1,,,,,,,,,,,,,,,,,,
,,,,,,,,,,,,,train3_audtrain2,2023-11-14_19h31.33.653,AudTraining2,2021.2.3,Win32,59.65163445,,,,,,,,,,,,,,,,,,,,,2,0.3868,1,8,20,4,1,RegPatterns/14-ms_2_1_1_4_1_3_unit250.mp3,RegPatterns/14d-ms_2_1_1_4_3_1_unit250.mp3,,,,,,,,,
,,,,,,,,,,,,,train3_audtrain2,2023-11-14_19h31.33.653,AudTraining2,2021.2.3,Win32,59.65163445,,,,,,,,,,,,,,RegPatterns/26-ms_1_1_2_2_1_1_4_unit250.mp3,0,0,0,0,0,1,,,,,,,,,,,,,,,,,,
,,,,,,,,,,,,,train3_audtrain2,2023-11-14_19h31.33.653,AudTraining2,2021.2.3,Win32,59.65163445,,,,,,,,,,,,,,RegPatterns/26-ms_1_1_2_2_1_1_4_unit250.mp3,0,1,0,1,0,1,,,,,,,,,,,,,,,,,,
,,,,,,,,,,,,,train3_audtrain2,2023-11-14_19h31.33.653,AudTraining2,2021.2.3,Win32,59.65163445,,,,,,,,,,,,,,RegPatterns/26d-ms_1_1_2_1_1_2_4_unit250.mp3,3,2,0,2,0,1,,,,,,,,,,,,,,,,,,
,,,,,,,,,,,,,train3_audtrain2,2023-11-14_19h31.33.653,AudTraining2,2021.2.3,Win32,59.65163445,,,,,,,,,,,,,,,,,,,,,1,13.7852,1,9,21,8,1,RegPatterns/26-ms_1_1_2_2_1_1_4_unit250.mp3,RegPatterns/26d-ms_1_1_2_1_1_2_4_unit250.mp3,,,,,,,,,
,,,,,,,,,,,,,train3_audtrain2,2023-11-14_19h31.33.653,AudTraining2,2021.2.3,Win32,59.65163445,,,,,,,,,,,,,,RegPatterns/09-ms_2_1_1_1_3_4_unit270.mp3,0,0,0,0,0,1,,,,,,,,,,,,,,,,,,
,,,,,,,,,,,,,train3_audtrain2,2023-11-14_19h31.33.653,AudTraining2,2021.2.3,Win32,59.65163445,,,,,,,,,,,,,,RegPatterns/09d-ms_2_1_1_3_1_4_unit270.mp3,2,1,0,1,0,1,,,,,,,,,,,,,,,,,,
,,,,,,,,,,,,,train3_audtrain2,2023-11-14_19h31.33.653,AudTraining2,2021.2.3,Win32,59.65163445,,,,,,,,,,,,,,RegPatterns/09-ms_2_1_1_1_3_4_unit270.mp3,0,2,0,2,0,1,,,,,,,,,,,,,,,,,,
,,,,,,,,,,,,,train3_audtrain2,2023-11-14_19h31.33.653,AudTraining2,2021.2.3,Win32,59.65163445,,,,,,,,,,RegPatterns/Noise.mp3,RegPatterns/Noise.mp3,,,,,,,,,,1,0.5051,,,,,,,,g,1.2282,0,0,0,0,1,,
,,,,,,,,,,,,,train3_audtrain2,2023-11-14_19h31.33.653,AudTraining2,2021.2.3,Win32,59.65163445,,,,,,,,,,,,,,,,,,,,,,,1,10,22,2,1,RegPatterns/09-ms_2_1_1_1_3_4_unit270.mp3,RegPatterns/09d-ms_2_1_1_3_1_4_unit270.mp3,,,,,,,,,
,,,,,,,,,,,,,train3_audtrain2,2023-11-14_19h31.33.653,AudTraining2,2021.2.3,Win32,59.65163445,,,,,,,,,,,,,,RegPatterns/29d-ms_3_1_2_1_1_3_1_unit250.mp3,1,0,0,0,0,1,,,,,,,,,,,,,,,,,,
,,,,,,,,,,,,,train3_audtrain2,2023-11-14_19h31.33.653,AudTraining2,2021.2.3,Win32,59.65163445,,,,,,,,,,,,,,RegPatterns/29-ms_3_1_2_1_1_1_3_unit250.mp3,0,1,0,1,0,1,,,,,,,,,,,,,,,,,,
,,,,,,,,,,,,,train3_audtrain2,2023-11-14_19h31.33.653,AudTraining2,2021.2.3,Win32,59.65163445,,,,,,,,,,,,,,RegPatterns/29-ms_3_1_2_1_1_1_3_unit250.mp3,0,2,0,2,0,1,,,,,,,,,,,,,,,,,,
,,,,,,,,,,,,,train3_audtrain2,2023-11-14_19h31.33.653,AudTraining2,2021.2.3,Win32,59.65163445,,,,,,,,,,,,,,,,,,,,,1,2.4128,1,11,23,9,1,RegPatterns/29-ms_3_1_2_1_1_1_3_unit250.mp3,RegPatterns/29d-ms_3_1_2_1_1_3_1_unit250.mp3,,,,,,,,,
,,,,,,,,,,,,,train3_audtrain2,2023-11-14_19h31.33.653,AudTraining2,2021.2.3,Win32,59.65163445,,,,,,,,,,,,,,RegPatterns/09-ms_2_1_1_1_3_4_unit270.mp3,0,0,0,0,0,1,,,,,,,,,,,,,,,,,,
,,,,,,,,,,,,,train3_audtrain2,2023-11-14_19h31.33.653,AudTraining2,2021.2.3,Win32,59.65163445,,,,,,,,,,,,,,RegPatterns/09-ms_2_1_1_1_3_4_unit270.mp3,0,1,0,1,0,1,,,,,,,,,,,,,,,,,,
,,,,,,,,,,,,,train3_audtrain2,2023-11-14_19h31.33.653,AudTraining2,2021.2.3,Win32,59.65163445,,,,,,,,,,,,,,RegPatterns/09d-ms_2_1_1_3_1_4_unit270.mp3,3,2,0,2,0,1,,,,,,,,,,,,,,,,,,
,,,,,,,,,,,,,train3_audtrain2,2023-11-14_19h31.33.653,AudTraining2,2021.2.3,Win32,59.65163445,,,,,,,,,,,,,,,,,,,,,1,1.713,2,0,24,2,1,RegPatterns/09-ms_2_1_1_1_3_4_unit270.mp3,RegPatterns/09d-ms_2_1_1_3_1_4_unit270.mp3,,,,,,,,,
,,,,,,,,,,,,,train3_audtrain2,2023-11-14_19h31.33.653,AudTraining2,2021.2.3,Win32,59.65163445,,,,,,,,,,,,,,RegPatterns/03-ms_3_1_4_2_2_unit270.mp3,0,0,0,0,0,1,,,,,,,,,,,,,,,,,,
,,,,,,,,,,,,,train3_audtrain2,2023-11-14_19h31.33.653,AudTraining2,2021.2.3,Win32,59.65163445,,,,,,,,,,,,,,RegPatterns/03d-ms_1_3_4_2_2_unit270.mp3,2,1,0,1,0,1,,,,,,,,,,,,,,,,,,
,,,,,,,,,,,,,train3_audtrain2,2023-11-14_19h31.33.653,AudTraining2,2021.2.3,Win32,59.65163445,,,,,,,,,,,,,,RegPatterns/03-ms_3_1_4_2_2_unit270.mp3,0,2,0,2,0,1,,,,,,,,,,,,,,,,,,
,,,,,,,,,,,,,train3_audtrain2,2023-11-14_19h31.33.653,AudTraining2,2021.2.3,Win32,59.65163445,,,,,,,,,,,,,,,,,,,,,1,1.5787,2,1,25,1,1,RegPatterns/03-ms_3_1_4_2_2_unit270.mp3,RegPatterns/03d-ms_1_3_4_2_2_unit270.mp3,,,,,,,,,
,,,,,,,,,,,,,train3_audtrain2,2023-11-14_19h31.33.653,AudTraining2,2021.2.3,Win32,59.65163445,,,,,,,,,,,,,,RegPatterns/02d-ms_3_1_4_3_1_unit250.mp3,1,0,0,0,0,1,,,,,,,,,,,,,,,,,,
,,,,,,,,,,,,,train3_audtrain2,2023-11-14_19h31.33.653,AudTraining2,2021.2.3,Win32,59.65163445,,,,,,,,,,,,,,RegPatterns/02-ms_3_1_4_1_3_unit250.mp3,0,1,0,1,0,1,,,,,,,,,,,,,,,,,,
,,,,,,,,,,,,,train3_audtrain2,2023-11-14_19h31.33.653,AudTraining2,2021.2.3,Win32,59.65163445,,,,,,,,,,,,,,RegPatterns/02-ms_3_1_4_1_3_unit250.mp3,0,2,0,2,0,1,,,,,,,,,,,,,,,,,,
,,,,,,,,,,,,,train3_audtrain2,2023-11-14_19h31.33.653,AudTraining2,2021.2.3,Win32,59.65163445,,,,,,,,,,,,,,,,,,,,,1,0.3573,2,2,26,0,1,RegPatterns/02-ms_3_1_4_1_3_unit250.mp3,RegPatterns/02d-ms_3_1_4_3_1_unit250.mp3,,,,,,,,,
,,,,,,,,,,,,,train3_audtrain2,2023-11-14_19h31.33.653,AudTraining2,2021.2.3,Win32,59.65163445,,,,,,,,,,,,,,RegPatterns/14-ms_2_1_1_4_1_3_unit250.mp3,0,0,0,0,0,1,,,,,,,,,,,,,,,,,,
,,,,,,,,,,,,,train3_audtrain2,2023-11-14_19h31.33.653,AudTraining2,2021.2.3,Win32,59.65163445,,,,,,,,,,,,,,RegPatterns/14-ms_2_1_1_4_1_3_unit250.mp3,0,1,0,1,0,1,,,,,,,,,,,,,,,,,,
,,,,,,,,,,,,,train3_audtrain2,2023-11-14_19h31.33.653,AudTraining2,2021.2.3,Win32,59.65163445,,,,,,,,,,,,,,RegPatterns/14d-ms_2_1_1_4_3_1_unit250.mp3,3,2,0,2,0,1,,,,,,,,,,,,,,,,,,
,,,,,,,,,,,,,train3_audtrain2,2023-11-14_19h31.33.653,AudTraining2,2021.2.3,Win32,59.65163445,,,,,,,,,,,,,,,,,,,,,1,16.8944,2,3,27,4,1,RegPatterns/14-ms_2_1_1_4_1_3_unit250.mp3,RegPatterns/14d-ms_2_1_1_4_3_1_unit250.mp3,,,,,,,,,
,,,,,,,,,,,,,train3_audtrain2,2023-11-14_19h31.33.653,AudTraining2,2021.2.3,Win32,59.65163445,,,,,,,,,,,,,,RegPatterns/16-ms_3_1_2_2_1_3_unit230.mp3,0,0,0,0,0,1,,,,,,,,,,,,,,,,,,
,,,,,,,,,,,,,train3_audtrain2,2023-11-14_19h31.33.653,AudTraining2,2021.2.3,Win32,59.65163445,,,,,,,,,,,,,,RegPatterns/16d-ms_3_1_2_2_3_1_unit230.mp3,2,1,0,1,0,1,,,,,,,,,,,,,,,,,,
,,,,,,,,,,,,,train3_audtrain2,2023-11-14_19h31.33.653,AudTraining2,2021.2.3,Win32,59.65163445,,,,,,,,,,,,,,RegPatterns/16-ms_3_1_2_2_1_3_unit230.mp3,0,2,0,2,0,1,,,,,,,,,,,,,,,,,,
,,,,,,,,,,,,,train3_audtrain2,2023-11-14_19h31.33.653,AudTraining2,2021.2.3,Win32,59.65163445,,,,,,,,,,,,,,,,,,,,,1,1.6909,2,4,28,5,1,RegPatterns/16-ms_3_1_2_2_1_3_unit230.mp3,RegPatterns/16d-ms_3_1_2_2_3_1_unit230.mp3,,,,,,,,,
,,,,,,,,,,,,,train3_audtrain2,2023-11-14_19h31.33.653,AudTraining2,2021.2.3,Win32,59.65163445,,,,,,,,,,,,,,RegPatterns/20-ms_2_1_1_2_2_3_1_unit230.mp3,0,0,0,0,0,1,,,,,,,,,,,,,,,,,,
,,,,,,,,,,,,,train3_audtrain2,2023-11-14_19h31.33.653,AudTraining2,2021.2.3,Win32,59.65163445,,,,,,,,,,,,,,RegPatterns/20d-ms_2_1_1_2_2_1_3_unit230.mp3,2,1,0,1,0,1,,,,,,,,,,,,,,,,,,
,,,,,,,,,,,,,train3_audtrain2,2023-11-14_19h31.33.653,AudTraining2,2021.2.3,Win32,59.65163445,,,,,,,,,,,,,,RegPatterns/20-ms_2_1_1_2_2_3_1_unit230.mp3,0,2,0,2,0,1,,,,,,,,,,,,,,,,,,
,,,,,,,,,,,,,train3_audtrain2,2023-11-14_19h31.33.653,AudTraining2,2021.2.3,Win32,59.65163445,,,,,,,,,,,,,,,,,,,,,2,1.9436,2,5,29,11,1,RegPatterns/20-ms_2_1_1_2_2_3_1_unit230.mp3,RegPatterns/20d-ms_2_1_1_2_2_1_3_unit230.mp3,,,,,,,,,
,,,,,,,,,,,,,train3_audtrain2,2023-11-14_19h31.33.653,AudTraining2,2021.2.3,Win32,59.65163445,,,,,,,,,,,,,,RegPatterns/26-ms_1_1_2_2_1_1_4_unit250.mp3,0,0,0,0,0,1,,,,,,,,,,,,,,,,,,
,,,,,,,,,,,,,train3_audtrain2,2023-11-14_19h31.33.653,AudTraining2,2021.2.3,Win32,59.65163445,,,,,,,,,,,,,,RegPatterns/26d-ms_1_1_2_1_1_2_4_unit250.mp3,2,1,0,1,0,1,,,,,,,,,,,,,,,,,,
,,,,,,,,,,,,,train3_audtrain2,2023-11-14_19h31.33.653,AudTraining2,2021.2.3,Win32,59.65163445,,,,,,,,,,,,,,RegPatterns/26-ms_1_1_2_2_1_1_4_unit250.mp3,0,2,0,2,0,1,,,,,,,,,,,,,,,,,,
,,,,,,,,,,,,,train3_audtrain2,2023-11-14_19h31.33.653,AudTraining2,2021.2.3,Win32,59.65163445,,,,,,,,,,,,,,,,,,,,,3,46.351,2,6,30,8,1,RegPatterns/26-ms_1_1_2_2_1_1_4_unit250.mp3,RegPatterns/26d-ms_1_1_2_1_1_2_4_unit250.mp3,,,,,,,,,
,,,,,,,,,,,,,train3_audtrain2,2023-11-14_19h31.33.653,AudTraining2,2021.2.3,Win32,59.65163445,,,,,,,,,,,,,,RegPatterns/18-ms_4_2_2_1_1_2_unit270.mp3,0,0,0,0,0,1,,,,,,,,,,,,,,,,,,
,,,,,,,,,,,,,train3_audtrain2,2023-11-14_19h31.33.653,AudTraining2,2021.2.3,Win32,59.65163445,,,,,,,,,,,,,,RegPatterns/18d-ms_4_2_2_2_1_1_unit270.mp3,2,1,0,1,0,1,,,,,,,,,,,,,,,,,,
,,,,,,,,,,,,,train3_audtrain2,2023-11-14_19h31.33.653,AudTraining2,2021.2.3,Win32,59.65163445,,,,,,,,,,,,,,RegPatterns/18-ms_4_2_2_1_1_2_unit270.mp3,0,2,0,2,0,1,,,,,,,,,,,,,,,,,,
,,,,,,,,,,,,,train3_audtrain2,2023-11-14_19h31.33.653,AudTraining2,2021.2.3,Win32,59.65163445,,,,,,,,,,,,,,,,,,,,,1,55.8299,2,7,31,6,1,RegPatterns/18-ms_4_2_2_1_1_2_unit270.mp3,RegPatterns/18d-ms_4_2_2_2_1_1_unit270.mp3,,,,,,,,,
,,,,,,,,,,,,,train3_audtrain2,2023-11-14_19h31.33.653,AudTraining2,2021.2.3,Win32,59.65163445,,,,,,,,,,,,,,RegPatterns/12-ms_3_1_1_3_2_2_unit270.mp3,0,0,0,0,0,1,,,,,,,,,,,,,,,,,,
,,,,,,,,,,,,,train3_audtrain2,2023-11-14_19h31.33.653,AudTraining2,2021.2.3,Win32,59.65163445,,,,,,,,,,,,,,RegPatterns/12-ms_3_1_1_3_2_2_unit270.mp3,0,1,0,1,0,1,,,,,,,,,,,,,,,,,,
,,,,,,,,,,,,,train3_audtrain2,2023-11-14_19h31.33.653,AudTraining2,2021.2.3,Win32,59.65163445,,,,,,,,,,,,,,RegPatterns/12d-ms_3_1_3_1_2_2_unit270.mp3,3,2,0,2,0,1,,,,,,,,,,,,,,,,,,
,,,,,,,,,,,,,train3_audtrain2,2023-11-14_19h31.33.653,AudTraining2,2021.2.3,Win32,59.65163445,,,,,,,,,,,,,,,,,,,,,2,0.4447,2,8,32,3,1,RegPatterns/12-ms_3_1_1_3_2_2_unit270.mp3,RegPatterns/12d-ms_3_1_3_1_2_2_unit270.mp3,,,,,,,,,
,,,,,,,,,,,,,train3_audtrain2,2023-11-14_19h31.33.653,AudTraining2,2021.2.3,Win32,59.65163445,,,,,,,,,,,,,,RegPatterns/30d-ms_1_3_2_2_1_1_2_unit230.mp3,1,0,0,0,0,1,,,,,,,,,,,,,,,,,,
,,,,,,,,,,,,,train3_audtrain2,2023-11-14_19h31.33.653,AudTraining2,2021.2.3,Win32,59.65163445,,,,,,,,,,,,,,RegPatterns/30-ms_3_1_2_2_1_1_2_unit230.mp3,0,1,0,1,0,1,,,,,,,,,,,,,,,,,,
,,,,,,,,,,,,,train3_audtrain2,2023-11-14_19h31.33.653,AudTraining2,2021.2.3,Win32,59.65163445,,,,,,,,,,,,,,RegPatterns/30-ms_3_1_2_2_1_1_2_unit230.mp3,0,2,0,2,0,1,,,,,,,,,,,,,,,,,,
,,,,,,,,,,,,,train3_audtrain2,2023-11-14_19h31.33.653,AudTraining2,2021.2.3,Win32,59.65163445,,,,,,,,,,,,,,,,,,,,,3,24.4293,2,9,33,10,1,RegPatterns/30-ms_3_1_2_2_1_1_2_unit230.mp3,RegPatterns/30d-ms_1_3_2_2_1_1_2_unit230.mp3,,,,,,,,,
,,,,,,,,,,,,,train3_audtrain2,2023-11-14_19h31.33.653,AudTraining2,2021.2.3,Win32,59.65163445,,,,,,,,,,,,,,RegPatterns/19-ms_1_1_2_3_1_2_2_unit230.mp3,0,0,0,0,0,1,,,,,,,,,,,,,,,,,,
,,,,,,,,,,,,,train3_audtrain2,2023-11-14_19h31.33.653,AudTraining2,2021.2.3,Win32,59.65163445,,,,,,,,,,,,,,RegPatterns/19-ms_1_1_2_3_1_2_2_unit230.mp3,0,1,0,1,0,1,,,,,,,,,,,,,,,,,,
,,,,,,,,,,,,,train3_audtrain2,2023-11-14_19h31.33.653,AudTraining2,2021.2.3,Win32,59.65163445,,,,,,,,,,,,,,RegPatterns/19d-ms_1_1_2_1_3_2_2_unit230.mp3,3,2,0,2,0,1,,,,,,,,,,,,,,,,,,
,,,,,,,,,,,,,train3_audtrain2,2023-11-14_19h31.33.653,AudTraining2,2021.2.3,Win32,59.65163445,,,,,,,,,,,,,,,,,,,,,1,71.1095,2,10,34,7,1,RegPatterns/19-ms_1_1_2_3_1_2_2_unit230.mp3,RegPatterns/19d-ms_1_1_2_1_3_2_2_unit230.mp3,,,,,,,,,
,,,,,,,,,,,,,train3_audtrain2,2023-11-14_19h31.33.653,AudTraining2,2021.2.3,Win32,59.65163445,,,,,,,,,,,,,,RegPatterns/29-ms_3_1_2_1_1_1_3_unit250.mp3,0,0,0,0,0,1,,,,,,,,,,,,,,,,,,
,,,,,,,,,,,,,train3_audtrain2,2023-11-14_19h31.33.653,AudTraining2,2021.2.3,Win32,59.65163445,,,,,,,,,,,,,,RegPatterns/29-ms_3_1_2_1_1_1_3_unit250.mp3,0,1,0,1,0,1,,,,,,,,,,,,,,,,,,
,,,,,,,,,,,,,train3_audtrain2,2023-11-14_19h31.33.653,AudTraining2,2021.2.3,Win32,59.65163445,,,,,,,,,,,,,,RegPatterns/29d-ms_3_1_2_1_1_3_1_unit250.mp3,3,2,0,2,0,1,,,,,,,,,,,,,,,,,,
,,,,,,,,,,,,,train3_audtrain2,2023-11-14_19h31.33.653,AudTraining2,2021.2.3,Win32,59.65163445,,,,,,,,,,,,,,,,,,,,,3,0.5041,2,11,35,9,1,RegPatterns/29-ms_3_1_2_1_1_1_3_unit250.mp3,RegPatterns/29d-ms_3_1_2_1_1_3_1_unit250.mp3,,,,,,,,,
,,,,,,,,,,,,,train3_audtrain2,2023-11-14_19h31.33.653,AudTraining2,2021.2.3,Win32,59.65163445,,,,,,,,,,,,,,,,,,,,,,,,,,,,,,,,,,,,,space,1.0063
