key_resp.keys,key_resp.rt,key_resp_2.keys,key_resp_2.rt,key_resp_3.keys,key_resp_3.rt,trials.thisRepN,trials.thisTrialN,trials.thisN,trials.thisIndex,trials.ran,volstandard,voldeviant,participant,date,expName,psychopyVersion,OS,frameRate,key_resp_4.keys,key_resp_4.rt,key_resp_5.keys,key_resp_5.rt,trials_2.thisRepN,trials_2.thisTrialN,trials_2.thisN,trials_2.thisIndex,trials_2.ran,RegStandardPitch,RegDeviantPitch,key_resp_6.keys,key_resp_6.rt,RegAudSequence,diff-reg,trials_3.thisRepN,trials_3.thisTrialN,trials_3.thisN,trials_3.thisIndex,trials_3.ran,key_resp_7.keys,key_resp_7.rt,trials_5.thisRepN,trials_5.thisTrialN,trials_5.thisN,trials_5.thisIndex,trials_5.ran,standard,devient,key_resp_8.keys,key_resp_8.rt,trials_4.thisRepN,trials_4.thisTrialN,trials_4.thisN,trials_4.thisIndex,trials_4.ran,key_resp_9.keys,key_resp_9.rt
space,1.1762,space,0.8111,space,1.399,0,0,0,0,1,RegPatterns/01-ms_2_2_4_1_3_unit230.mp3,RegPatterns/01d-ms_2_2_4_3_1_unit230.mp3,train15_audtrain2,2023-11-17_13h39.36.595,AudTraining2,2021.2.3,Win32,144.9275362,,,,,,,,,,,,,,,,,,,,,,,,,,,,,,,,,,,,,,
,,,,,,,,,,,,,train15_audtrain2,2023-11-17_13h39.36.595,AudTraining2,2021.2.3,Win32,144.9275362,space,3.1259,g,0.3209,0,0,0,0,1,RegPatterns/Noise.mp3,RegPatterns/Noise.mp3,,,,,,,,,,,,,,,,,,,,,,,,,,,
,,,,,,,,,,,,,train15_audtrain2,2023-11-17_13h39.36.595,AudTraining2,2021.2.3,Win32,144.9275362,,,,,,,,,,,,space,1.2702,RegPatterns/12-ms_3_1_1_3_2_2_unit270.mp3,0,0,0,0,0,1,,,,,,,,,,,,,,,,,,
,,,,,,,,,,,,,train15_audtrain2,2023-11-17_13h39.36.595,AudTraining2,2021.2.3,Win32,144.9275362,,,,,,,,,,,,,,RegPatterns/12d-ms_3_1_3_1_2_2_unit270.mp3,2,1,0,1,0,1,,,,,,,,,,,,,,,,,,
,,,,,,,,,,,,,train15_audtrain2,2023-11-17_13h39.36.595,AudTraining2,2021.2.3,Win32,144.9275362,,,,,,,,,,,,,,RegPatterns/12-ms_3_1_1_3_2_2_unit270.mp3,0,2,0,2,0,1,,,,,,,,,,,,,,,,,,
,,,,,,,,,,,,,train15_audtrain2,2023-11-17_13h39.36.595,AudTraining2,2021.2.3,Win32,144.9275362,,,,,,,,,,,,,,,,,,,,,2,2.6393,0,0,0,3,1,RegPatterns/12-ms_3_1_1_3_2_2_unit270.mp3,RegPatterns/12d-ms_3_1_3_1_2_2_unit270.mp3,,,,,,,,,
,,,,,,,,,,,,,train15_audtrain2,2023-11-17_13h39.36.595,AudTraining2,2021.2.3,Win32,144.9275362,,,,,,,,,,,,,,RegPatterns/29d-ms_3_1_2_1_1_3_1_unit250.mp3,1,0,0,0,0,1,,,,,,,,,,,,,,,,,,
,,,,,,,,,,,,,train15_audtrain2,2023-11-17_13h39.36.595,AudTraining2,2021.2.3,Win32,144.9275362,,,,,,,,,,,,,,RegPatterns/29-ms_3_1_2_1_1_1_3_unit250.mp3,0,1,0,1,0,1,,,,,,,,,,,,,,,,,,
,,,,,,,,,,,,,train15_audtrain2,2023-11-17_13h39.36.595,AudTraining2,2021.2.3,Win32,144.9275362,,,,,,,,,,,,,,RegPatterns/29-ms_3_1_2_1_1_1_3_unit250.mp3,0,2,0,2,0,1,,,,,,,,,,,,,,,,,,
,,,,,,,,,,,,,train15_audtrain2,2023-11-17_13h39.36.595,AudTraining2,2021.2.3,Win32,144.9275362,,,,,,,,,,,,,,,,,,,,,1,167.3707,0,1,1,9,1,RegPatterns/29-ms_3_1_2_1_1_1_3_unit250.mp3,RegPatterns/29d-ms_3_1_2_1_1_3_1_unit250.mp3,,,,,,,,,
,,,,,,,,,,,,,train15_audtrain2,2023-11-17_13h39.36.595,AudTraining2,2021.2.3,Win32,144.9275362,,,,,,,,,,,,,,RegPatterns/02-ms_3_1_4_1_3_unit250.mp3,0,0,0,0,0,1,,,,,,,,,,,,,,,,,,
,,,,,,,,,,,,,train15_audtrain2,2023-11-17_13h39.36.595,AudTraining2,2021.2.3,Win32,144.9275362,,,,,,,,,,,,,,RegPatterns/02d-ms_3_1_4_3_1_unit250.mp3,2,1,0,1,0,1,,,,,,,,,,,,,,,,,,
,,,,,,,,,,,,,train15_audtrain2,2023-11-17_13h39.36.595,AudTraining2,2021.2.3,Win32,144.9275362,,,,,,,,,,,,,,RegPatterns/02-ms_3_1_4_1_3_unit250.mp3,0,2,0,2,0,1,,,,,,,,,,,,,,,,,,
,,,,,,,,,,,,,train15_audtrain2,2023-11-17_13h39.36.595,AudTraining2,2021.2.3,Win32,144.9275362,,,,,,,,,,,,,,,,,,,,,1,6.05,0,2,2,0,1,RegPatterns/02-ms_3_1_4_1_3_unit250.mp3,RegPatterns/02d-ms_3_1_4_3_1_unit250.mp3,,,,,,,,,
,,,,,,,,,,,,,train15_audtrain2,2023-11-17_13h39.36.595,AudTraining2,2021.2.3,Win32,144.9275362,,,,,,,,,,,,,,RegPatterns/03d-ms_1_3_4_2_2_unit270.mp3,1,0,0,0,0,1,,,,,,,,,,,,,,,,,,
,,,,,,,,,,,,,train15_audtrain2,2023-11-17_13h39.36.595,AudTraining2,2021.2.3,Win32,144.9275362,,,,,,,,,,,,,,RegPatterns/03-ms_3_1_4_2_2_unit270.mp3,0,1,0,1,0,1,,,,,,,,,,,,,,,,,,
,,,,,,,,,,,,,train15_audtrain2,2023-11-17_13h39.36.595,AudTraining2,2021.2.3,Win32,144.9275362,,,,,,,,,,,,,,RegPatterns/03-ms_3_1_4_2_2_unit270.mp3,0,2,0,2,0,1,,,,,,,,,,,,,,,,,,
,,,,,,,,,,,,,train15_audtrain2,2023-11-17_13h39.36.595,AudTraining2,2021.2.3,Win32,144.9275362,,,,,,,,,,,,,,,,,,,,,2,2.3081,0,3,3,1,1,RegPatterns/03-ms_3_1_4_2_2_unit270.mp3,RegPatterns/03d-ms_1_3_4_2_2_unit270.mp3,,,,,,,,,
,,,,,,,,,,,,,train15_audtrain2,2023-11-17_13h39.36.595,AudTraining2,2021.2.3,Win32,144.9275362,,,,,,,,,,,,,,RegPatterns/26-ms_1_1_2_2_1_1_4_unit250.mp3,0,0,0,0,0,1,,,,,,,,,,,,,,,,,,
,,,,,,,,,,,,,train15_audtrain2,2023-11-17_13h39.36.595,AudTraining2,2021.2.3,Win32,144.9275362,,,,,,,,,,,,,,RegPatterns/26-ms_1_1_2_2_1_1_4_unit250.mp3,0,1,0,1,0,1,,,,,,,,,,,,,,,,,,
,,,,,,,,,,,,,train15_audtrain2,2023-11-17_13h39.36.595,AudTraining2,2021.2.3,Win32,144.9275362,,,,,,,,,,,,,,RegPatterns/26d-ms_1_1_2_1_1_2_4_unit250.mp3,3,2,0,2,0,1,,,,,,,,,,,,,,,,,,
,,,,,,,,,,,,,train15_audtrain2,2023-11-17_13h39.36.595,AudTraining2,2021.2.3,Win32,144.9275362,,,,,,,,,,,,,,,,,,,,,1,1.5348,0,4,4,8,1,RegPatterns/26-ms_1_1_2_2_1_1_4_unit250.mp3,RegPatterns/26d-ms_1_1_2_1_1_2_4_unit250.mp3,,,,,,,,,
,,,,,,,,,,,,,train15_audtrain2,2023-11-17_13h39.36.595,AudTraining2,2021.2.3,Win32,144.9275362,,,,,,,,,,,,,,RegPatterns/30d-ms_1_3_2_2_1_1_2_unit230.mp3,1,0,0,0,0,1,,,,,,,,,,,,,,,,,,
,,,,,,,,,,,,,train15_audtrain2,2023-11-17_13h39.36.595,AudTraining2,2021.2.3,Win32,144.9275362,,,,,,,,,,,,,,RegPatterns/30-ms_3_1_2_2_1_1_2_unit230.mp3,0,1,0,1,0,1,,,,,,,,,,,,,,,,,,
,,,,,,,,,,,,,train15_audtrain2,2023-11-17_13h39.36.595,AudTraining2,2021.2.3,Win32,144.9275362,,,,,,,,,,,,,,RegPatterns/30-ms_3_1_2_2_1_1_2_unit230.mp3,0,2,0,2,0,1,,,,,,,,,,,,,,,,,,
,,,,,,,,,,,,,train15_audtrain2,2023-11-17_13h39.36.595,AudTraining2,2021.2.3,Win32,144.9275362,,,,,,,,,,,,,,,,,,,,,2,1.1393,0,5,5,10,1,RegPatterns/30-ms_3_1_2_2_1_1_2_unit230.mp3,RegPatterns/30d-ms_1_3_2_2_1_1_2_unit230.mp3,,,,,,,,,
,,,,,,,,,,,,,train15_audtrain2,2023-11-17_13h39.36.595,AudTraining2,2021.2.3,Win32,144.9275362,,,,,,,,,,,,,,RegPatterns/09d-ms_2_1_1_3_1_4_unit270.mp3,1,0,0,0,0,1,,,,,,,,,,,,,,,,,,
,,,,,,,,,,,,,train15_audtrain2,2023-11-17_13h39.36.595,AudTraining2,2021.2.3,Win32,144.9275362,,,,,,,,,,,,,,RegPatterns/09-ms_2_1_1_1_3_4_unit270.mp3,0,1,0,1,0,1,,,,,,,,,,,,,,,,,,
,,,,,,,,,,,,,train15_audtrain2,2023-11-17_13h39.36.595,AudTraining2,2021.2.3,Win32,144.9275362,,,,,,,,,,,,,,RegPatterns/09-ms_2_1_1_1_3_4_unit270.mp3,0,2,0,2,0,1,,,,,,,,,,,,,,,,,,
,,,,,,,,,,,,,train15_audtrain2,2023-11-17_13h39.36.595,AudTraining2,2021.2.3,Win32,144.9275362,,,,,,,,,,,,,,,,,,,,,1,0.1897,0,6,6,2,1,RegPatterns/09-ms_2_1_1_1_3_4_unit270.mp3,RegPatterns/09d-ms_2_1_1_3_1_4_unit270.mp3,,,,,,,,,
,,,,,,,,,,,,,train15_audtrain2,2023-11-17_13h39.36.595,AudTraining2,2021.2.3,Win32,144.9275362,,,,,,,,,,,,,,RegPatterns/14-ms_2_1_1_4_1_3_unit250.mp3,0,0,0,0,0,1,,,,,,,,,,,,,,,,,,
,,,,,,,,,,,,,train15_audtrain2,2023-11-17_13h39.36.595,AudTraining2,2021.2.3,Win32,144.9275362,,,,,,,,,,,,,,RegPatterns/14-ms_2_1_1_4_1_3_unit250.mp3,0,1,0,1,0,1,,,,,,,,,,,,,,,,,,
,,,,,,,,,,,,,train15_audtrain2,2023-11-17_13h39.36.595,AudTraining2,2021.2.3,Win32,144.9275362,,,,,,,,,,,,,,RegPatterns/14d-ms_2_1_1_4_3_1_unit250.mp3,3,2,0,2,0,1,,,,,,,,,,,,,,,,,,
,,,,,,,,,,,,,train15_audtrain2,2023-11-17_13h39.36.595,AudTraining2,2021.2.3,Win32,144.9275362,,,,,,,,,,,,,,,,,,,,,3,0.0156,0,7,7,4,1,RegPatterns/14-ms_2_1_1_4_1_3_unit250.mp3,RegPatterns/14d-ms_2_1_1_4_3_1_unit250.mp3,,,,,,,,,
,,,,,,,,,,,,,train15_audtrain2,2023-11-17_13h39.36.595,AudTraining2,2021.2.3,Win32,144.9275362,,,,,,,,,,,,,,RegPatterns/19-ms_1_1_2_3_1_2_2_unit230.mp3,0,0,0,0,0,1,,,,,,,,,,,,,,,,,,
,,,,,,,,,,,,,train15_audtrain2,2023-11-17_13h39.36.595,AudTraining2,2021.2.3,Win32,144.9275362,,,,,,,,,,,,,,RegPatterns/19d-ms_1_1_2_1_3_2_2_unit230.mp3,2,1,0,1,0,1,,,,,,,,,,,,,,,,,,
,,,,,,,,,,,,,train15_audtrain2,2023-11-17_13h39.36.595,AudTraining2,2021.2.3,Win32,144.9275362,,,,,,,,,,,,,,RegPatterns/19-ms_1_1_2_3_1_2_2_unit230.mp3,0,2,0,2,0,1,,,,,,,,,,,,,,,,,,
,,,,,,,,,,,,,train15_audtrain2,2023-11-17_13h39.36.595,AudTraining2,2021.2.3,Win32,144.9275362,,,,,,,,,,,,,,,,,,,,,2,0.141,0,8,8,7,1,RegPatterns/19-ms_1_1_2_3_1_2_2_unit230.mp3,RegPatterns/19d-ms_1_1_2_1_3_2_2_unit230.mp3,,,,,,,,,
,,,,,,,,,,,,,train15_audtrain2,2023-11-17_13h39.36.595,AudTraining2,2021.2.3,Win32,144.9275362,,,,,,,,,,,,,,RegPatterns/16d-ms_3_1_2_2_3_1_unit230.mp3,1,0,0,0,0,1,,,,,,,,,,,,,,,,,,
,,,,,,,,,,,,,train15_audtrain2,2023-11-17_13h39.36.595,AudTraining2,2021.2.3,Win32,144.9275362,,,,,,,,,,,,,,RegPatterns/16-ms_3_1_2_2_1_3_unit230.mp3,0,1,0,1,0,1,,,,,,,,,,,,,,,,,,
,,,,,,,,,,,,,train15_audtrain2,2023-11-17_13h39.36.595,AudTraining2,2021.2.3,Win32,144.9275362,,,,,,,,,,,,,,RegPatterns/16-ms_3_1_2_2_1_3_unit230.mp3,0,2,0,2,0,1,,,,,,,,,,,,,,,,,,
,,,,,,,,,,,,,train15_audtrain2,2023-11-17_13h39.36.595,AudTraining2,2021.2.3,Win32,144.9275362,,,,,,,,,,,,,,,,,,,,,2,0.9671,0,9,9,5,1,RegPatterns/16-ms_3_1_2_2_1_3_unit230.mp3,RegPatterns/16d-ms_3_1_2_2_3_1_unit230.mp3,,,,,,,,,
,,,,,,,,,,,,,train15_audtrain2,2023-11-17_13h39.36.595,AudTraining2,2021.2.3,Win32,144.9275362,,,,,,,,,,,,,,RegPatterns/18d-ms_4_2_2_2_1_1_unit270.mp3,1,0,0,0,0,1,,,,,,,,,,,,,,,,,,
,,,,,,,,,,,,,train15_audtrain2,2023-11-17_13h39.36.595,AudTraining2,2021.2.3,Win32,144.9275362,,,,,,,,,,,,,,RegPatterns/18-ms_4_2_2_1_1_2_unit270.mp3,0,1,0,1,0,1,,,,,,,,,,,,,,,,,,
,,,,,,,,,,,,,train15_audtrain2,2023-11-17_13h39.36.595,AudTraining2,2021.2.3,Win32,144.9275362,,,,,,,,,,,,,,RegPatterns/18-ms_4_2_2_1_1_2_unit270.mp3,0,2,0,2,0,1,,,,,,,,,,,,,,,,,,
,,,,,,,,,,,,,train15_audtrain2,2023-11-17_13h39.36.595,AudTraining2,2021.2.3,Win32,144.9275362,,,,,,,,,,RegPatterns/Noise.mp3,RegPatterns/Noise.mp3,,,,,,,,,,2,5.4057,,,,,,,,g,1.4531,0,0,0,0,1,,
,,,,,,,,,,,,,train15_audtrain2,2023-11-17_13h39.36.595,AudTraining2,2021.2.3,Win32,144.9275362,,,,,,,,,,,,,,,,,,,,,,,0,10,10,6,1,RegPatterns/18-ms_4_2_2_1_1_2_unit270.mp3,RegPatterns/18d-ms_4_2_2_2_1_1_unit270.mp3,,,,,,,,,
,,,,,,,,,,,,,train15_audtrain2,2023-11-17_13h39.36.595,AudTraining2,2021.2.3,Win32,144.9275362,,,,,,,,,,,,,,RegPatterns/20d-ms_2_1_1_2_2_1_3_unit230.mp3,1,0,0,0,0,1,,,,,,,,,,,,,,,,,,
,,,,,,,,,,,,,train15_audtrain2,2023-11-17_13h39.36.595,AudTraining2,2021.2.3,Win32,144.9275362,,,,,,,,,,,,,,RegPatterns/20-ms_2_1_1_2_2_3_1_unit230.mp3,0,1,0,1,0,1,,,,,,,,,,,,,,,,,,
,,,,,,,,,,,,,train15_audtrain2,2023-11-17_13h39.36.595,AudTraining2,2021.2.3,Win32,144.9275362,,,,,,,,,,,,,,RegPatterns/20-ms_2_1_1_2_2_3_1_unit230.mp3,0,2,0,2,0,1,,,,,,,,,,,,,,,,,,
,,,,,,,,,,,,,train15_audtrain2,2023-11-17_13h39.36.595,AudTraining2,2021.2.3,Win32,144.9275362,,,,,,,,,,,,,,,,,,,,,2,5.6051,0,11,11,11,1,RegPatterns/20-ms_2_1_1_2_2_3_1_unit230.mp3,RegPatterns/20d-ms_2_1_1_2_2_1_3_unit230.mp3,,,,,,,,,
,,,,,,,,,,,,,train15_audtrain2,2023-11-17_13h39.36.595,AudTraining2,2021.2.3,Win32,144.9275362,,,,,,,,,,,,,,RegPatterns/02d-ms_3_1_4_3_1_unit250.mp3,1,0,0,0,0,1,,,,,,,,,,,,,,,,,,
,,,,,,,,,,,,,train15_audtrain2,2023-11-17_13h39.36.595,AudTraining2,2021.2.3,Win32,144.9275362,,,,,,,,,,,,,,RegPatterns/02-ms_3_1_4_1_3_unit250.mp3,0,1,0,1,0,1,,,,,,,,,,,,,,,,,,
,,,,,,,,,,,,,train15_audtrain2,2023-11-17_13h39.36.595,AudTraining2,2021.2.3,Win32,144.9275362,,,,,,,,,,,,,,RegPatterns/02-ms_3_1_4_1_3_unit250.mp3,0,2,0,2,0,1,,,,,,,,,,,,,,,,,,
,,,,,,,,,,,,,train15_audtrain2,2023-11-17_13h39.36.595,AudTraining2,2021.2.3,Win32,144.9275362,,,,,,,,,,,,,,,,,,,,,3,1.2089,1,0,12,0,1,RegPatterns/02-ms_3_1_4_1_3_unit250.mp3,RegPatterns/02d-ms_3_1_4_3_1_unit250.mp3,,,,,,,,,
,,,,,,,,,,,,,train15_audtrain2,2023-11-17_13h39.36.595,AudTraining2,2021.2.3,Win32,144.9275362,,,,,,,,,,,,,,RegPatterns/20-ms_2_1_1_2_2_3_1_unit230.mp3,0,0,0,0,0,1,,,,,,,,,,,,,,,,,,
,,,,,,,,,,,,,train15_audtrain2,2023-11-17_13h39.36.595,AudTraining2,2021.2.3,Win32,144.9275362,,,,,,,,,,,,,,RegPatterns/20d-ms_2_1_1_2_2_1_3_unit230.mp3,2,1,0,1,0,1,,,,,,,,,,,,,,,,,,
,,,,,,,,,,,,,train15_audtrain2,2023-11-17_13h39.36.595,AudTraining2,2021.2.3,Win32,144.9275362,,,,,,,,,,,,,,RegPatterns/20-ms_2_1_1_2_2_3_1_unit230.mp3,0,2,0,2,0,1,,,,,,,,,,,,,,,,,,
,,,,,,,,,,,,,train15_audtrain2,2023-11-17_13h39.36.595,AudTraining2,2021.2.3,Win32,144.9275362,,,,,,,,,,,,,,,,,,,,,2,1.1638,1,1,13,11,1,RegPatterns/20-ms_2_1_1_2_2_3_1_unit230.mp3,RegPatterns/20d-ms_2_1_1_2_2_1_3_unit230.mp3,,,,,,,,,
,,,,,,,,,,,,,train15_audtrain2,2023-11-17_13h39.36.595,AudTraining2,2021.2.3,Win32,144.9275362,,,,,,,,,,,,,,RegPatterns/09-ms_2_1_1_1_3_4_unit270.mp3,0,0,0,0,0,1,,,,,,,,,,,,,,,,,,
,,,,,,,,,,,,,train15_audtrain2,2023-11-17_13h39.36.595,AudTraining2,2021.2.3,Win32,144.9275362,,,,,,,,,,,,,,RegPatterns/09-ms_2_1_1_1_3_4_unit270.mp3,0,1,0,1,0,1,,,,,,,,,,,,,,,,,,
,,,,,,,,,,,,,train15_audtrain2,2023-11-17_13h39.36.595,AudTraining2,2021.2.3,Win32,144.9275362,,,,,,,,,,,,,,RegPatterns/09d-ms_2_1_1_3_1_4_unit270.mp3,3,2,0,2,0,1,,,,,,,,,,,,,,,,,,
,,,,,,,,,,,,,train15_audtrain2,2023-11-17_13h39.36.595,AudTraining2,2021.2.3,Win32,144.9275362,,,,,,,,,,,,,,,,,,,,,1,0.9267,1,2,14,2,1,RegPatterns/09-ms_2_1_1_1_3_4_unit270.mp3,RegPatterns/09d-ms_2_1_1_3_1_4_unit270.mp3,,,,,,,,,
,,,,,,,,,,,,,train15_audtrain2,2023-11-17_13h39.36.595,AudTraining2,2021.2.3,Win32,144.9275362,,,,,,,,,,,,,,RegPatterns/14d-ms_2_1_1_4_3_1_unit250.mp3,1,0,0,0,0,1,,,,,,,,,,,,,,,,,,
,,,,,,,,,,,,,train15_audtrain2,2023-11-17_13h39.36.595,AudTraining2,2021.2.3,Win32,144.9275362,,,,,,,,,,,,,,RegPatterns/14-ms_2_1_1_4_1_3_unit250.mp3,0,1,0,1,0,1,,,,,,,,,,,,,,,,,,
,,,,,,,,,,,,,train15_audtrain2,2023-11-17_13h39.36.595,AudTraining2,2021.2.3,Win32,144.9275362,,,,,,,,,,,,,,RegPatterns/14-ms_2_1_1_4_1_3_unit250.mp3,0,2,0,2,0,1,,,,,,,,,,,,,,,,,,
,,,,,,,,,,,,,train15_audtrain2,2023-11-17_13h39.36.595,AudTraining2,2021.2.3,Win32,144.9275362,,,,,,,,,,,,,,,,,,,,,1,0.1407,1,3,15,4,1,RegPatterns/14-ms_2_1_1_4_1_3_unit250.mp3,RegPatterns/14d-ms_2_1_1_4_3_1_unit250.mp3,,,,,,,,,
,,,,,,,,,,,,,train15_audtrain2,2023-11-17_13h39.36.595,AudTraining2,2021.2.3,Win32,144.9275362,,,,,,,,,,,,,,RegPatterns/19-ms_1_1_2_3_1_2_2_unit230.mp3,0,0,0,0,0,1,,,,,,,,,,,,,,,,,,
,,,,,,,,,,,,,train15_audtrain2,2023-11-17_13h39.36.595,AudTraining2,2021.2.3,Win32,144.9275362,,,,,,,,,,,,,,RegPatterns/19-ms_1_1_2_3_1_2_2_unit230.mp3,0,1,0,1,0,1,,,,,,,,,,,,,,,,,,
,,,,,,,,,,,,,train15_audtrain2,2023-11-17_13h39.36.595,AudTraining2,2021.2.3,Win32,144.9275362,,,,,,,,,,,,,,RegPatterns/19d-ms_1_1_2_1_3_2_2_unit230.mp3,3,2,0,2,0,1,,,,,,,,,,,,,,,,,,
,,,,,,,,,,,,,train15_audtrain2,2023-11-17_13h39.36.595,AudTraining2,2021.2.3,Win32,144.9275362,,,,,,,,,,,,,,,,,,,,,3,35.7176,1,4,16,7,1,RegPatterns/19-ms_1_1_2_3_1_2_2_unit230.mp3,RegPatterns/19d-ms_1_1_2_1_3_2_2_unit230.mp3,,,,,,,,,
,,,,,,,,,,,,,train15_audtrain2,2023-11-17_13h39.36.595,AudTraining2,2021.2.3,Win32,144.9275362,,,,,,,,,,,,,,RegPatterns/12-ms_3_1_1_3_2_2_unit270.mp3,0,0,0,0,0,1,,,,,,,,,,,,,,,,,,
,,,,,,,,,,,,,train15_audtrain2,2023-11-17_13h39.36.595,AudTraining2,2021.2.3,Win32,144.9275362,,,,,,,,,,,,,,RegPatterns/12-ms_3_1_1_3_2_2_unit270.mp3,0,1,0,1,0,1,,,,,,,,,,,,,,,,,,
,,,,,,,,,,,,,train15_audtrain2,2023-11-17_13h39.36.595,AudTraining2,2021.2.3,Win32,144.9275362,,,,,,,,,,,,,,RegPatterns/12d-ms_3_1_3_1_2_2_unit270.mp3,3,2,0,2,0,1,,,,,,,,,,,,,,,,,,
,,,,,,,,,,,,,train15_audtrain2,2023-11-17_13h39.36.595,AudTraining2,2021.2.3,Win32,144.9275362,,,,,,,,,,,,,,,,,,,,,3,15.9317,1,5,17,3,1,RegPatterns/12-ms_3_1_1_3_2_2_unit270.mp3,RegPatterns/12d-ms_3_1_3_1_2_2_unit270.mp3,,,,,,,,,
,,,,,,,,,,,,,train15_audtrain2,2023-11-17_13h39.36.595,AudTraining2,2021.2.3,Win32,144.9275362,,,,,,,,,,,,,,RegPatterns/18-ms_4_2_2_1_1_2_unit270.mp3,0,0,0,0,0,1,,,,,,,,,,,,,,,,,,
,,,,,,,,,,,,,train15_audtrain2,2023-11-17_13h39.36.595,AudTraining2,2021.2.3,Win32,144.9275362,,,,,,,,,,,,,,RegPatterns/18-ms_4_2_2_1_1_2_unit270.mp3,0,1,0,1,0,1,,,,,,,,,,,,,,,,,,
,,,,,,,,,,,,,train15_audtrain2,2023-11-17_13h39.36.595,AudTraining2,2021.2.3,Win32,144.9275362,,,,,,,,,,,,,,RegPatterns/18d-ms_4_2_2_2_1_1_unit270.mp3,3,2,0,2,0,1,,,,,,,,,,,,,,,,,,
,,,,,,,,,,,,,train15_audtrain2,2023-11-17_13h39.36.595,AudTraining2,2021.2.3,Win32,144.9275362,,,,,,,,,,,,,,,,,,,,,3,6.4251,1,6,18,6,1,RegPatterns/18-ms_4_2_2_1_1_2_unit270.mp3,RegPatterns/18d-ms_4_2_2_2_1_1_unit270.mp3,,,,,,,,,
,,,,,,,,,,,,,train15_audtrain2,2023-11-17_13h39.36.595,AudTraining2,2021.2.3,Win32,144.9275362,,,,,,,,,,,,,,RegPatterns/30-ms_3_1_2_2_1_1_2_unit230.mp3,0,0,0,0,0,1,,,,,,,,,,,,,,,,,,
,,,,,,,,,,,,,train15_audtrain2,2023-11-17_13h39.36.595,AudTraining2,2021.2.3,Win32,144.9275362,,,,,,,,,,,,,,RegPatterns/30-ms_3_1_2_2_1_1_2_unit230.mp3,0,1,0,1,0,1,,,,,,,,,,,,,,,,,,
,,,,,,,,,,,,,train15_audtrain2,2023-11-17_13h39.36.595,AudTraining2,2021.2.3,Win32,144.9275362,,,,,,,,,,,,,,RegPatterns/30d-ms_1_3_2_2_1_1_2_unit230.mp3,3,2,0,2,0,1,,,,,,,,,,,,,,,,,,
,,,,,,,,,,,,,train15_audtrain2,2023-11-17_13h39.36.595,AudTraining2,2021.2.3,Win32,144.9275362,,,,,,,,,,,,,,,,,,,,,2,1.6689,1,7,19,10,1,RegPatterns/30-ms_3_1_2_2_1_1_2_unit230.mp3,RegPatterns/30d-ms_1_3_2_2_1_1_2_unit230.mp3,,,,,,,,,
,,,,,,,,,,,,,train15_audtrain2,2023-11-17_13h39.36.595,AudTraining2,2021.2.3,Win32,144.9275362,,,,,,,,,,,,,,RegPatterns/26d-ms_1_1_2_1_1_2_4_unit250.mp3,1,0,0,0,0,1,,,,,,,,,,,,,,,,,,
,,,,,,,,,,,,,train15_audtrain2,2023-11-17_13h39.36.595,AudTraining2,2021.2.3,Win32,144.9275362,,,,,,,,,,,,,,RegPatterns/26-ms_1_1_2_2_1_1_4_unit250.mp3,0,1,0,1,0,1,,,,,,,,,,,,,,,,,,
,,,,,,,,,,,,,train15_audtrain2,2023-11-17_13h39.36.595,AudTraining2,2021.2.3,Win32,144.9275362,,,,,,,,,,,,,,RegPatterns/26-ms_1_1_2_2_1_1_4_unit250.mp3,0,2,0,2,0,1,,,,,,,,,,,,,,,,,,
,,,,,,,,,,,,,train15_audtrain2,2023-11-17_13h39.36.595,AudTraining2,2021.2.3,Win32,144.9275362,,,,,,,,,,,,,,,,,,,,,2,0.6178,1,8,20,8,1,RegPatterns/26-ms_1_1_2_2_1_1_4_unit250.mp3,RegPatterns/26d-ms_1_1_2_1_1_2_4_unit250.mp3,,,,,,,,,
,,,,,,,,,,,,,train15_audtrain2,2023-11-17_13h39.36.595,AudTraining2,2021.2.3,Win32,144.9275362,,,,,,,,,,,,,,RegPatterns/16-ms_3_1_2_2_1_3_unit230.mp3,0,0,0,0,0,1,,,,,,,,,,,,,,,,,,
,,,,,,,,,,,,,train15_audtrain2,2023-11-17_13h39.36.595,AudTraining2,2021.2.3,Win32,144.9275362,,,,,,,,,,,,,,RegPatterns/16d-ms_3_1_2_2_3_1_unit230.mp3,2,1,0,1,0,1,,,,,,,,,,,,,,,,,,
,,,,,,,,,,,,,train15_audtrain2,2023-11-17_13h39.36.595,AudTraining2,2021.2.3,Win32,144.9275362,,,,,,,,,,,,,,RegPatterns/16-ms_3_1_2_2_1_3_unit230.mp3,0,2,0,2,0,1,,,,,,,,,,,,,,,,,,
,,,,,,,,,,,,,train15_audtrain2,2023-11-17_13h39.36.595,AudTraining2,2021.2.3,Win32,144.9275362,,,,,,,,,,,,,,,,,,,,,1,0.5026,1,9,21,5,1,RegPatterns/16-ms_3_1_2_2_1_3_unit230.mp3,RegPatterns/16d-ms_3_1_2_2_3_1_unit230.mp3,,,,,,,,,
,,,,,,,,,,,,,train15_audtrain2,2023-11-17_13h39.36.595,AudTraining2,2021.2.3,Win32,144.9275362,,,,,,,,,,,,,,RegPatterns/03-ms_3_1_4_2_2_unit270.mp3,0,0,0,0,0,1,,,,,,,,,,,,,,,,,,
,,,,,,,,,,,,,train15_audtrain2,2023-11-17_13h39.36.595,AudTraining2,2021.2.3,Win32,144.9275362,,,,,,,,,,,,,,RegPatterns/03-ms_3_1_4_2_2_unit270.mp3,0,1,0,1,0,1,,,,,,,,,,,,,,,,,,
,,,,,,,,,,,,,train15_audtrain2,2023-11-17_13h39.36.595,AudTraining2,2021.2.3,Win32,144.9275362,,,,,,,,,,,,,,RegPatterns/03d-ms_1_3_4_2_2_unit270.mp3,3,2,0,2,0,1,,,,,,,,,,,,,,,,,,
,,,,,,,,,,,,,train15_audtrain2,2023-11-17_13h39.36.595,AudTraining2,2021.2.3,Win32,144.9275362,,,,,,,,,,,,,,,,,,,,,3,0.202,1,10,22,1,1,RegPatterns/03-ms_3_1_4_2_2_unit270.mp3,RegPatterns/03d-ms_1_3_4_2_2_unit270.mp3,,,,,,,,,
,,,,,,,,,,,,,train15_audtrain2,2023-11-17_13h39.36.595,AudTraining2,2021.2.3,Win32,144.9275362,,,,,,,,,,,,,,RegPatterns/29-ms_3_1_2_1_1_1_3_unit250.mp3,0,0,0,0,0,1,,,,,,,,,,,,,,,,,,
,,,,,,,,,,,,,train15_audtrain2,2023-11-17_13h39.36.595,AudTraining2,2021.2.3,Win32,144.9275362,,,,,,,,,,,,,,RegPatterns/29-ms_3_1_2_1_1_1_3_unit250.mp3,0,1,0,1,0,1,,,,,,,,,,,,,,,,,,
,,,,,,,,,,,,,train15_audtrain2,2023-11-17_13h39.36.595,AudTraining2,2021.2.3,Win32,144.9275362,,,,,,,,,,,,,,RegPatterns/29d-ms_3_1_2_1_1_3_1_unit250.mp3,3,2,0,2,0,1,,,,,,,,,,,,,,,,,,
,,,,,,,,,,,,,train15_audtrain2,2023-11-17_13h39.36.595,AudTraining2,2021.2.3,Win32,144.9275362,,,,,,,,,,RegPatterns/Noise.mp3,RegPatterns/Noise.mp3,,,,,,,,,,2,0.4933,,,,,,,,g,0.6538,0,0,0,0,1,,
,,,,,,,,,,,,,train15_audtrain2,2023-11-17_13h39.36.595,AudTraining2,2021.2.3,Win32,144.9275362,,,,,,,,,,,,,,,,,,,,,,,1,11,23,9,1,RegPatterns/29-ms_3_1_2_1_1_1_3_unit250.mp3,RegPatterns/29d-ms_3_1_2_1_1_3_1_unit250.mp3,,,,,,,,,
,,,,,,,,,,,,,train15_audtrain2,2023-11-17_13h39.36.595,AudTraining2,2021.2.3,Win32,144.9275362,,,,,,,,,,,,,,RegPatterns/09-ms_2_1_1_1_3_4_unit270.mp3,0,0,0,0,0,1,,,,,,,,,,,,,,,,,,
,,,,,,,,,,,,,train15_audtrain2,2023-11-17_13h39.36.595,AudTraining2,2021.2.3,Win32,144.9275362,,,,,,,,,,,,,,RegPatterns/09d-ms_2_1_1_3_1_4_unit270.mp3,2,1,0,1,0,1,,,,,,,,,,,,,,,,,,
,,,,,,,,,,,,,train15_audtrain2,2023-11-17_13h39.36.595,AudTraining2,2021.2.3,Win32,144.9275362,,,,,,,,,,,,,,RegPatterns/09-ms_2_1_1_1_3_4_unit270.mp3,0,2,0,2,0,1,,,,,,,,,,,,,,,,,,
,,,,,,,,,,,,,train15_audtrain2,2023-11-17_13h39.36.595,AudTraining2,2021.2.3,Win32,144.9275362,,,,,,,,,,,,,,,,,,,,,2,0.5701,2,0,24,2,1,RegPatterns/09-ms_2_1_1_1_3_4_unit270.mp3,RegPatterns/09d-ms_2_1_1_3_1_4_unit270.mp3,,,,,,,,,
,,,,,,,,,,,,,train15_audtrain2,2023-11-17_13h39.36.595,AudTraining2,2021.2.3,Win32,144.9275362,,,,,,,,,,,,,,RegPatterns/26-ms_1_1_2_2_1_1_4_unit250.mp3,0,0,0,0,0,1,,,,,,,,,,,,,,,,,,
,,,,,,,,,,,,,train15_audtrain2,2023-11-17_13h39.36.595,AudTraining2,2021.2.3,Win32,144.9275362,,,,,,,,,,,,,,RegPatterns/26d-ms_1_1_2_1_1_2_4_unit250.mp3,2,1,0,1,0,1,,,,,,,,,,,,,,,,,,
,,,,,,,,,,,,,train15_audtrain2,2023-11-17_13h39.36.595,AudTraining2,2021.2.3,Win32,144.9275362,,,,,,,,,,,,,,RegPatterns/26-ms_1_1_2_2_1_1_4_unit250.mp3,0,2,0,2,0,1,,,,,,,,,,,,,,,,,,
,,,,,,,,,,,,,train15_audtrain2,2023-11-17_13h39.36.595,AudTraining2,2021.2.3,Win32,144.9275362,,,,,,,,,,,,,,,,,,,,,1,78.2143,2,1,25,8,1,RegPatterns/26-ms_1_1_2_2_1_1_4_unit250.mp3,RegPatterns/26d-ms_1_1_2_1_1_2_4_unit250.mp3,,,,,,,,,
,,,,,,,,,,,,,train15_audtrain2,2023-11-17_13h39.36.595,AudTraining2,2021.2.3,Win32,144.9275362,,,,,,,,,,,,,,RegPatterns/14-ms_2_1_1_4_1_3_unit250.mp3,0,0,0,0,0,1,,,,,,,,,,,,,,,,,,
,,,,,,,,,,,,,train15_audtrain2,2023-11-17_13h39.36.595,AudTraining2,2021.2.3,Win32,144.9275362,,,,,,,,,,,,,,RegPatterns/14d-ms_2_1_1_4_3_1_unit250.mp3,2,1,0,1,0,1,,,,,,,,,,,,,,,,,,
,,,,,,,,,,,,,train15_audtrain2,2023-11-17_13h39.36.595,AudTraining2,2021.2.3,Win32,144.9275362,,,,,,,,,,,,,,RegPatterns/14-ms_2_1_1_4_1_3_unit250.mp3,0,2,0,2,0,1,,,,,,,,,,,,,,,,,,
,,,,,,,,,,,,,train15_audtrain2,2023-11-17_13h39.36.595,AudTraining2,2021.2.3,Win32,144.9275362,,,,,,,,,,,,,,,,,,,,,1,0.3001,2,2,26,4,1,RegPatterns/14-ms_2_1_1_4_1_3_unit250.mp3,RegPatterns/14d-ms_2_1_1_4_3_1_unit250.mp3,,,,,,,,,
,,,,,,,,,,,,,train15_audtrain2,2023-11-17_13h39.36.595,AudTraining2,2021.2.3,Win32,144.9275362,,,,,,,,,,,,,,RegPatterns/19d-ms_1_1_2_1_3_2_2_unit230.mp3,1,0,0,0,0,1,,,,,,,,,,,,,,,,,,
,,,,,,,,,,,,,train15_audtrain2,2023-11-17_13h39.36.595,AudTraining2,2021.2.3,Win32,144.9275362,,,,,,,,,,,,,,RegPatterns/19-ms_1_1_2_3_1_2_2_unit230.mp3,0,1,0,1,0,1,,,,,,,,,,,,,,,,,,
,,,,,,,,,,,,,train15_audtrain2,2023-11-17_13h39.36.595,AudTraining2,2021.2.3,Win32,144.9275362,,,,,,,,,,,,,,RegPatterns/19-ms_1_1_2_3_1_2_2_unit230.mp3,0,2,0,2,0,1,,,,,,,,,,,,,,,,,,
,,,,,,,,,,,,,train15_audtrain2,2023-11-17_13h39.36.595,AudTraining2,2021.2.3,Win32,144.9275362,,,,,,,,,,,,,,,,,,,,,1,131.4071,2,3,27,7,1,RegPatterns/19-ms_1_1_2_3_1_2_2_unit230.mp3,RegPatterns/19d-ms_1_1_2_1_3_2_2_unit230.mp3,,,,,,,,,
,,,,,,,,,,,,,train15_audtrain2,2023-11-17_13h39.36.595,AudTraining2,2021.2.3,Win32,144.9275362,,,,,,,,,,,,,,RegPatterns/16-ms_3_1_2_2_1_3_unit230.mp3,0,0,0,0,0,1,,,,,,,,,,,,,,,,,,
,,,,,,,,,,,,,train15_audtrain2,2023-11-17_13h39.36.595,AudTraining2,2021.2.3,Win32,144.9275362,,,,,,,,,,,,,,RegPatterns/16-ms_3_1_2_2_1_3_unit230.mp3,0,1,0,1,0,1,,,,,,,,,,,,,,,,,,
,,,,,,,,,,,,,train15_audtrain2,2023-11-17_13h39.36.595,AudTraining2,2021.2.3,Win32,144.9275362,,,,,,,,,,,,,,RegPatterns/16d-ms_3_1_2_2_3_1_unit230.mp3,3,2,0,2,0,1,,,,,,,,,,,,,,,,,,
,,,,,,,,,,,,,train15_audtrain2,2023-11-17_13h39.36.595,AudTraining2,2021.2.3,Win32,144.9275362,,,,,,,,,,,,,,,,,,,,,2,2.089,2,4,28,5,1,RegPatterns/16-ms_3_1_2_2_1_3_unit230.mp3,RegPatterns/16d-ms_3_1_2_2_3_1_unit230.mp3,,,,,,,,,
,,,,,,,,,,,,,train15_audtrain2,2023-11-17_13h39.36.595,AudTraining2,2021.2.3,Win32,144.9275362,,,,,,,,,,,,,,RegPatterns/29-ms_3_1_2_1_1_1_3_unit250.mp3,0,0,0,0,0,1,,,,,,,,,,,,,,,,,,
,,,,,,,,,,,,,train15_audtrain2,2023-11-17_13h39.36.595,AudTraining2,2021.2.3,Win32,144.9275362,,,,,,,,,,,,,,RegPatterns/29d-ms_3_1_2_1_1_3_1_unit250.mp3,2,1,0,1,0,1,,,,,,,,,,,,,,,,,,
,,,,,,,,,,,,,train15_audtrain2,2023-11-17_13h39.36.595,AudTraining2,2021.2.3,Win32,144.9275362,,,,,,,,,,,,,,RegPatterns/29-ms_3_1_2_1_1_1_3_unit250.mp3,0,2,0,2,0,1,,,,,,,,,,,,,,,,,,
,,,,,,,,,,,,,train15_audtrain2,2023-11-17_13h39.36.595,AudTraining2,2021.2.3,Win32,144.9275362,,,,,,,,,,,,,,,,,,,,,2,1.3964,2,5,29,9,1,RegPatterns/29-ms_3_1_2_1_1_1_3_unit250.mp3,RegPatterns/29d-ms_3_1_2_1_1_3_1_unit250.mp3,,,,,,,,,
,,,,,,,,,,,,,train15_audtrain2,2023-11-17_13h39.36.595,AudTraining2,2021.2.3,Win32,144.9275362,,,,,,,,,,,,,,RegPatterns/20-ms_2_1_1_2_2_3_1_unit230.mp3,0,0,0,0,0,1,,,,,,,,,,,,,,,,,,
,,,,,,,,,,,,,train15_audtrain2,2023-11-17_13h39.36.595,AudTraining2,2021.2.3,Win32,144.9275362,,,,,,,,,,,,,,RegPatterns/20-ms_2_1_1_2_2_3_1_unit230.mp3,0,1,0,1,0,1,,,,,,,,,,,,,,,,,,
,,,,,,,,,,,,,train15_audtrain2,2023-11-17_13h39.36.595,AudTraining2,2021.2.3,Win32,144.9275362,,,,,,,,,,,,,,RegPatterns/20d-ms_2_1_1_2_2_1_3_unit230.mp3,3,2,0,2,0,1,,,,,,,,,,,,,,,,,,
,,,,,,,,,,,,,train15_audtrain2,2023-11-17_13h39.36.595,AudTraining2,2021.2.3,Win32,144.9275362,,,,,,,,,,,,,,,,,,,,,3,3.816,2,6,30,11,1,RegPatterns/20-ms_2_1_1_2_2_3_1_unit230.mp3,RegPatterns/20d-ms_2_1_1_2_2_1_3_unit230.mp3,,,,,,,,,
,,,,,,,,,,,,,train15_audtrain2,2023-11-17_13h39.36.595,AudTraining2,2021.2.3,Win32,144.9275362,,,,,,,,,,,,,,RegPatterns/30-ms_3_1_2_2_1_1_2_unit230.mp3,0,0,0,0,0,1,,,,,,,,,,,,,,,,,,
,,,,,,,,,,,,,train15_audtrain2,2023-11-17_13h39.36.595,AudTraining2,2021.2.3,Win32,144.9275362,,,,,,,,,,,,,,RegPatterns/30d-ms_1_3_2_2_1_1_2_unit230.mp3,2,1,0,1,0,1,,,,,,,,,,,,,,,,,,
,,,,,,,,,,,,,train15_audtrain2,2023-11-17_13h39.36.595,AudTraining2,2021.2.3,Win32,144.9275362,,,,,,,,,,,,,,RegPatterns/30-ms_3_1_2_2_1_1_2_unit230.mp3,0,2,0,2,0,1,,,,,,,,,,,,,,,,,,
,,,,,,,,,,,,,train15_audtrain2,2023-11-17_13h39.36.595,AudTraining2,2021.2.3,Win32,144.9275362,,,,,,,,,,,,,,,,,,,,,3,13.7222,2,7,31,10,1,RegPatterns/30-ms_3_1_2_2_1_1_2_unit230.mp3,RegPatterns/30d-ms_1_3_2_2_1_1_2_unit230.mp3,,,,,,,,,
,,,,,,,,,,,,,train15_audtrain2,2023-11-17_13h39.36.595,AudTraining2,2021.2.3,Win32,144.9275362,,,,,,,,,,,,,,RegPatterns/03-ms_3_1_4_2_2_unit270.mp3,0,0,0,0,0,1,,,,,,,,,,,,,,,,,,
,,,,,,,,,,,,,train15_audtrain2,2023-11-17_13h39.36.595,AudTraining2,2021.2.3,Win32,144.9275362,,,,,,,,,,,,,,RegPatterns/03d-ms_1_3_4_2_2_unit270.mp3,2,1,0,1,0,1,,,,,,,,,,,,,,,,,,
,,,,,,,,,,,,,train15_audtrain2,2023-11-17_13h39.36.595,AudTraining2,2021.2.3,Win32,144.9275362,,,,,,,,,,,,,,RegPatterns/03-ms_3_1_4_2_2_unit270.mp3,0,2,0,2,0,1,,,,,,,,,,,,,,,,,,
,,,,,,,,,,,,,train15_audtrain2,2023-11-17_13h39.36.595,AudTraining2,2021.2.3,Win32,144.9275362,,,,,,,,,,,,,,,,,,,,,3,3.3631,2,8,32,1,1,RegPatterns/03-ms_3_1_4_2_2_unit270.mp3,RegPatterns/03d-ms_1_3_4_2_2_unit270.mp3,,,,,,,,,
,,,,,,,,,,,,,train15_audtrain2,2023-11-17_13h39.36.595,AudTraining2,2021.2.3,Win32,144.9275362,,,,,,,,,,,,,,RegPatterns/12d-ms_3_1_3_1_2_2_unit270.mp3,1,0,0,0,0,1,,,,,,,,,,,,,,,,,,
,,,,,,,,,,,,,train15_audtrain2,2023-11-17_13h39.36.595,AudTraining2,2021.2.3,Win32,144.9275362,,,,,,,,,,,,,,RegPatterns/12-ms_3_1_1_3_2_2_unit270.mp3,0,1,0,1,0,1,,,,,,,,,,,,,,,,,,
,,,,,,,,,,,,,train15_audtrain2,2023-11-17_13h39.36.595,AudTraining2,2021.2.3,Win32,144.9275362,,,,,,,,,,,,,,RegPatterns/12-ms_3_1_1_3_2_2_unit270.mp3,0,2,0,2,0,1,,,,,,,,,,,,,,,,,,
,,,,,,,,,,,,,train15_audtrain2,2023-11-17_13h39.36.595,AudTraining2,2021.2.3,Win32,144.9275362,,,,,,,,,,,,,,,,,,,,,3,1.9256,2,9,33,3,1,RegPatterns/12-ms_3_1_1_3_2_2_unit270.mp3,RegPatterns/12d-ms_3_1_3_1_2_2_unit270.mp3,,,,,,,,,
,,,,,,,,,,,,,train15_audtrain2,2023-11-17_13h39.36.595,AudTraining2,2021.2.3,Win32,144.9275362,,,,,,,,,,,,,,RegPatterns/02-ms_3_1_4_1_3_unit250.mp3,0,0,0,0,0,1,,,,,,,,,,,,,,,,,,
,,,,,,,,,,,,,train15_audtrain2,2023-11-17_13h39.36.595,AudTraining2,2021.2.3,Win32,144.9275362,,,,,,,,,,,,,,RegPatterns/02-ms_3_1_4_1_3_unit250.mp3,0,1,0,1,0,1,,,,,,,,,,,,,,,,,,
,,,,,,,,,,,,,train15_audtrain2,2023-11-17_13h39.36.595,AudTraining2,2021.2.3,Win32,144.9275362,,,,,,,,,,,,,,RegPatterns/02d-ms_3_1_4_3_1_unit250.mp3,3,2,0,2,0,1,,,,,,,,,,,,,,,,,,
,,,,,,,,,,,,,train15_audtrain2,2023-11-17_13h39.36.595,AudTraining2,2021.2.3,Win32,144.9275362,,,,,,,,,,,,,,,,,,,,,3,2.8339,2,10,34,0,1,RegPatterns/02-ms_3_1_4_1_3_unit250.mp3,RegPatterns/02d-ms_3_1_4_3_1_unit250.mp3,,,,,,,,,
,,,,,,,,,,,,,train15_audtrain2,2023-11-17_13h39.36.595,AudTraining2,2021.2.3,Win32,144.9275362,,,,,,,,,,,,,,RegPatterns/18-ms_4_2_2_1_1_2_unit270.mp3,0,0,0,0,0,1,,,,,,,,,,,,,,,,,,
,,,,,,,,,,,,,train15_audtrain2,2023-11-17_13h39.36.595,AudTraining2,2021.2.3,Win32,144.9275362,,,,,,,,,,,,,,RegPatterns/18d-ms_4_2_2_2_1_1_unit270.mp3,2,1,0,1,0,1,,,,,,,,,,,,,,,,,,
,,,,,,,,,,,,,train15_audtrain2,2023-11-17_13h39.36.595,AudTraining2,2021.2.3,Win32,144.9275362,,,,,,,,,,,,,,RegPatterns/18-ms_4_2_2_1_1_2_unit270.mp3,0,2,0,2,0,1,,,,,,,,,,,,,,,,,,
,,,,,,,,,,,,,train15_audtrain2,2023-11-17_13h39.36.595,AudTraining2,2021.2.3,Win32,144.9275362,,,,,,,,,,,,,,,,,,,,,2,1.4818,2,11,35,6,1,RegPatterns/18-ms_4_2_2_1_1_2_unit270.mp3,RegPatterns/18d-ms_4_2_2_2_1_1_unit270.mp3,,,,,,,,,
,,,,,,,,,,,,,train15_audtrain2,2023-11-17_13h39.36.595,AudTraining2,2021.2.3,Win32,144.9275362,,,,,,,,,,,,,,,,,,,,,,,,,,,,,,,,,,,,,space,2.1576
