key_resp.keys,key_resp.rt,key_resp_2.keys,key_resp_2.rt,key_resp_3.keys,key_resp_3.rt,trials.thisRepN,trials.thisTrialN,trials.thisN,trials.thisIndex,trials.ran,volstandard,voldeviant,participant,date,expName,psychopyVersion,OS,frameRate,key_resp_4.keys,key_resp_4.rt,key_resp_5.keys,key_resp_5.rt,trials_2.thisRepN,trials_2.thisTrialN,trials_2.thisN,trials_2.thisIndex,trials_2.ran,RegStandardPitch,RegDeviantPitch,key_resp_6.keys,key_resp_6.rt,RegAudSequence,diff-reg,trials_3.thisRepN,trials_3.thisTrialN,trials_3.thisN,trials_3.thisIndex,trials_3.ran,key_resp_7.keys,key_resp_7.rt,trials_5.thisRepN,trials_5.thisTrialN,trials_5.thisN,trials_5.thisIndex,trials_5.ran,standard,devient,key_resp_8.keys,key_resp_8.rt,trials_4.thisRepN,trials_4.thisTrialN,trials_4.thisN,trials_4.thisIndex,trials_4.ran,key_resp_9.keys,key_resp_9.rt
space,2.4209,space,1.6487,space,2.4322,0,0,0,0,1,RegPatterns/01-ms_2_2_4_1_3_unit230.mp3,RegPatterns/01d-ms_2_2_4_3_1_unit230.mp3,train15_audtrain2,2023-11-13_22h00.18.495,AudTraining2,2021.2.3,Win32,145.285486,,,,,,,,,,,,,,,,,,,,,,,,,,,,,,,,,,,,,,
,,,,,,,,,,,,,train15_audtrain2,2023-11-13_22h00.18.495,AudTraining2,2021.2.3,Win32,145.285486,space,3.2243,g,2.473,0,0,0,0,1,RegPatterns/Noise.mp3,RegPatterns/Noise.mp3,,,,,,,,,,,,,,,,,,,,,,,,,,,
,,,,,,,,,,,,,train15_audtrain2,2023-11-13_22h00.18.495,AudTraining2,2021.2.3,Win32,145.285486,,,,,,,,,,,,space,7.4505,RegPatterns/19-ms_1_1_2_3_1_2_2_unit230.mp3,0,0,0,0,0,1,,,,,,,,,,,,,,,,,,
,,,,,,,,,,,,,train15_audtrain2,2023-11-13_22h00.18.495,AudTraining2,2021.2.3,Win32,145.285486,,,,,,,,,,,,,,RegPatterns/19-ms_1_1_2_3_1_2_2_unit230.mp3,0,1,0,1,0,1,,,,,,,,,,,,,,,,,,
,,,,,,,,,,,,,train15_audtrain2,2023-11-13_22h00.18.495,AudTraining2,2021.2.3,Win32,145.285486,,,,,,,,,,,,,,RegPatterns/19d-ms_1_1_2_1_3_2_2_unit230.mp3,3,2,0,2,0,1,,,,,,,,,,,,,,,,,,
,,,,,,,,,,,,,train15_audtrain2,2023-11-13_22h00.18.495,AudTraining2,2021.2.3,Win32,145.285486,,,,,,,,,,,,,,,,,,,,,3,0.2651,0,0,0,7,1,RegPatterns/19-ms_1_1_2_3_1_2_2_unit230.mp3,RegPatterns/19d-ms_1_1_2_1_3_2_2_unit230.mp3,,,,,,,,,
,,,,,,,,,,,,,train15_audtrain2,2023-11-13_22h00.18.495,AudTraining2,2021.2.3,Win32,145.285486,,,,,,,,,,,,,,RegPatterns/29-ms_3_1_2_1_1_1_3_unit250.mp3,0,0,0,0,0,1,,,,,,,,,,,,,,,,,,
,,,,,,,,,,,,,train15_audtrain2,2023-11-13_22h00.18.495,AudTraining2,2021.2.3,Win32,145.285486,,,,,,,,,,,,,,RegPatterns/29-ms_3_1_2_1_1_1_3_unit250.mp3,0,1,0,1,0,1,,,,,,,,,,,,,,,,,,
,,,,,,,,,,,,,train15_audtrain2,2023-11-13_22h00.18.495,AudTraining2,2021.2.3,Win32,145.285486,,,,,,,,,,,,,,RegPatterns/29d-ms_3_1_2_1_1_3_1_unit250.mp3,3,2,0,2,0,1,,,,,,,,,,,,,,,,,,
,,,,,,,,,,,,,train15_audtrain2,2023-11-13_22h00.18.495,AudTraining2,2021.2.3,Win32,145.285486,,,,,,,,,,,,,,,,,,,,,3,1.4459,0,1,1,9,1,RegPatterns/29-ms_3_1_2_1_1_1_3_unit250.mp3,RegPatterns/29d-ms_3_1_2_1_1_3_1_unit250.mp3,,,,,,,,,
,,,,,,,,,,,,,train15_audtrain2,2023-11-13_22h00.18.495,AudTraining2,2021.2.3,Win32,145.285486,,,,,,,,,,,,,,RegPatterns/26d-ms_1_1_2_1_1_2_4_unit250.mp3,1,0,0,0,0,1,,,,,,,,,,,,,,,,,,
,,,,,,,,,,,,,train15_audtrain2,2023-11-13_22h00.18.495,AudTraining2,2021.2.3,Win32,145.285486,,,,,,,,,,,,,,RegPatterns/26-ms_1_1_2_2_1_1_4_unit250.mp3,0,1,0,1,0,1,,,,,,,,,,,,,,,,,,
,,,,,,,,,,,,,train15_audtrain2,2023-11-13_22h00.18.495,AudTraining2,2021.2.3,Win32,145.285486,,,,,,,,,,,,,,RegPatterns/26-ms_1_1_2_2_1_1_4_unit250.mp3,0,2,0,2,0,1,,,,,,,,,,,,,,,,,,
,,,,,,,,,,,,,train15_audtrain2,2023-11-13_22h00.18.495,AudTraining2,2021.2.3,Win32,145.285486,,,,,,,,,,,,,,,,,,,,,1,0.4179,0,2,2,8,1,RegPatterns/26-ms_1_1_2_2_1_1_4_unit250.mp3,RegPatterns/26d-ms_1_1_2_1_1_2_4_unit250.mp3,,,,,,,,,
,,,,,,,,,,,,,train15_audtrain2,2023-11-13_22h00.18.495,AudTraining2,2021.2.3,Win32,145.285486,,,,,,,,,,,,,,RegPatterns/14-ms_2_1_1_4_1_3_unit250.mp3,0,0,0,0,0,1,,,,,,,,,,,,,,,,,,
,,,,,,,,,,,,,train15_audtrain2,2023-11-13_22h00.18.495,AudTraining2,2021.2.3,Win32,145.285486,,,,,,,,,,,,,,RegPatterns/14-ms_2_1_1_4_1_3_unit250.mp3,0,1,0,1,0,1,,,,,,,,,,,,,,,,,,
,,,,,,,,,,,,,train15_audtrain2,2023-11-13_22h00.18.495,AudTraining2,2021.2.3,Win32,145.285486,,,,,,,,,,,,,,RegPatterns/14d-ms_2_1_1_4_3_1_unit250.mp3,3,2,0,2,0,1,,,,,,,,,,,,,,,,,,
,,,,,,,,,,,,,train15_audtrain2,2023-11-13_22h00.18.495,AudTraining2,2021.2.3,Win32,145.285486,,,,,,,,,,,,,,,,,,,,,3,0.3349,0,3,3,4,1,RegPatterns/14-ms_2_1_1_4_1_3_unit250.mp3,RegPatterns/14d-ms_2_1_1_4_3_1_unit250.mp3,,,,,,,,,
,,,,,,,,,,,,,train15_audtrain2,2023-11-13_22h00.18.495,AudTraining2,2021.2.3,Win32,145.285486,,,,,,,,,,,,,,RegPatterns/30d-ms_1_3_2_2_1_1_2_unit230.mp3,1,0,0,0,0,1,,,,,,,,,,,,,,,,,,
,,,,,,,,,,,,,train15_audtrain2,2023-11-13_22h00.18.495,AudTraining2,2021.2.3,Win32,145.285486,,,,,,,,,,,,,,RegPatterns/30-ms_3_1_2_2_1_1_2_unit230.mp3,0,1,0,1,0,1,,,,,,,,,,,,,,,,,,
,,,,,,,,,,,,,train15_audtrain2,2023-11-13_22h00.18.495,AudTraining2,2021.2.3,Win32,145.285486,,,,,,,,,,,,,,RegPatterns/30-ms_3_1_2_2_1_1_2_unit230.mp3,0,2,0,2,0,1,,,,,,,,,,,,,,,,,,
,,,,,,,,,,,,,train15_audtrain2,2023-11-13_22h00.18.495,AudTraining2,2021.2.3,Win32,145.285486,,,,,,,,,,,,,,,,,,,,,1,0.0633,0,4,4,10,1,RegPatterns/30-ms_3_1_2_2_1_1_2_unit230.mp3,RegPatterns/30d-ms_1_3_2_2_1_1_2_unit230.mp3,,,,,,,,,
,,,,,,,,,,,,,train15_audtrain2,2023-11-13_22h00.18.495,AudTraining2,2021.2.3,Win32,145.285486,,,,,,,,,,,,,,RegPatterns/03-ms_3_1_4_2_2_unit270.mp3,0,0,0,0,0,1,,,,,,,,,,,,,,,,,,
,,,,,,,,,,,,,train15_audtrain2,2023-11-13_22h00.18.495,AudTraining2,2021.2.3,Win32,145.285486,,,,,,,,,,,,,,RegPatterns/03-ms_3_1_4_2_2_unit270.mp3,0,1,0,1,0,1,,,,,,,,,,,,,,,,,,
,,,,,,,,,,,,,train15_audtrain2,2023-11-13_22h00.18.495,AudTraining2,2021.2.3,Win32,145.285486,,,,,,,,,,,,,,RegPatterns/03d-ms_1_3_4_2_2_unit270.mp3,3,2,0,2,0,1,,,,,,,,,,,,,,,,,,
,,,,,,,,,,,,,train15_audtrain2,2023-11-13_22h00.18.495,AudTraining2,2021.2.3,Win32,145.285486,,,,,,,,,,,,,,,,,,,,,3,0.5284,0,5,5,1,1,RegPatterns/03-ms_3_1_4_2_2_unit270.mp3,RegPatterns/03d-ms_1_3_4_2_2_unit270.mp3,,,,,,,,,
,,,,,,,,,,,,,train15_audtrain2,2023-11-13_22h00.18.495,AudTraining2,2021.2.3,Win32,145.285486,,,,,,,,,,,,,,RegPatterns/16-ms_3_1_2_2_1_3_unit230.mp3,0,0,0,0,0,1,,,,,,,,,,,,,,,,,,
,,,,,,,,,,,,,train15_audtrain2,2023-11-13_22h00.18.495,AudTraining2,2021.2.3,Win32,145.285486,,,,,,,,,,,,,,RegPatterns/16-ms_3_1_2_2_1_3_unit230.mp3,0,1,0,1,0,1,,,,,,,,,,,,,,,,,,
,,,,,,,,,,,,,train15_audtrain2,2023-11-13_22h00.18.495,AudTraining2,2021.2.3,Win32,145.285486,,,,,,,,,,,,,,RegPatterns/16d-ms_3_1_2_2_3_1_unit230.mp3,3,2,0,2,0,1,,,,,,,,,,,,,,,,,,
,,,,,,,,,,,,,train15_audtrain2,2023-11-13_22h00.18.495,AudTraining2,2021.2.3,Win32,145.285486,,,,,,,,,,,,,,,,,,,,,3,0.2796,0,6,6,5,1,RegPatterns/16-ms_3_1_2_2_1_3_unit230.mp3,RegPatterns/16d-ms_3_1_2_2_3_1_unit230.mp3,,,,,,,,,
,,,,,,,,,,,,,train15_audtrain2,2023-11-13_22h00.18.495,AudTraining2,2021.2.3,Win32,145.285486,,,,,,,,,,,,,,RegPatterns/02d-ms_3_1_4_3_1_unit250.mp3,1,0,0,0,0,1,,,,,,,,,,,,,,,,,,
,,,,,,,,,,,,,train15_audtrain2,2023-11-13_22h00.18.495,AudTraining2,2021.2.3,Win32,145.285486,,,,,,,,,,,,,,RegPatterns/02-ms_3_1_4_1_3_unit250.mp3,0,1,0,1,0,1,,,,,,,,,,,,,,,,,,
,,,,,,,,,,,,,train15_audtrain2,2023-11-13_22h00.18.495,AudTraining2,2021.2.3,Win32,145.285486,,,,,,,,,,,,,,RegPatterns/02-ms_3_1_4_1_3_unit250.mp3,0,2,0,2,0,1,,,,,,,,,,,,,,,,,,
,,,,,,,,,,,,,train15_audtrain2,2023-11-13_22h00.18.495,AudTraining2,2021.2.3,Win32,145.285486,,,,,,,,,,,,,,,,,,,,,3,0.4184,0,7,7,0,1,RegPatterns/02-ms_3_1_4_1_3_unit250.mp3,RegPatterns/02d-ms_3_1_4_3_1_unit250.mp3,,,,,,,,,
,,,,,,,,,,,,,train15_audtrain2,2023-11-13_22h00.18.495,AudTraining2,2021.2.3,Win32,145.285486,,,,,,,,,,,,,,RegPatterns/18d-ms_4_2_2_2_1_1_unit270.mp3,1,0,0,0,0,1,,,,,,,,,,,,,,,,,,
,,,,,,,,,,,,,train15_audtrain2,2023-11-13_22h00.18.495,AudTraining2,2021.2.3,Win32,145.285486,,,,,,,,,,,,,,RegPatterns/18-ms_4_2_2_1_1_2_unit270.mp3,0,1,0,1,0,1,,,,,,,,,,,,,,,,,,
,,,,,,,,,,,,,train15_audtrain2,2023-11-13_22h00.18.495,AudTraining2,2021.2.3,Win32,145.285486,,,,,,,,,,,,,,RegPatterns/18-ms_4_2_2_1_1_2_unit270.mp3,0,2,0,2,0,1,,,,,,,,,,,,,,,,,,
,,,,,,,,,,,,,train15_audtrain2,2023-11-13_22h00.18.495,AudTraining2,2021.2.3,Win32,145.285486,,,,,,,,,,,,,,,,,,,,,1,0.3481,0,8,8,6,1,RegPatterns/18-ms_4_2_2_1_1_2_unit270.mp3,RegPatterns/18d-ms_4_2_2_2_1_1_unit270.mp3,,,,,,,,,
,,,,,,,,,,,,,train15_audtrain2,2023-11-13_22h00.18.495,AudTraining2,2021.2.3,Win32,145.285486,,,,,,,,,,,,,,RegPatterns/20d-ms_2_1_1_2_2_1_3_unit230.mp3,1,0,0,0,0,1,,,,,,,,,,,,,,,,,,
,,,,,,,,,,,,,train15_audtrain2,2023-11-13_22h00.18.495,AudTraining2,2021.2.3,Win32,145.285486,,,,,,,,,,,,,,RegPatterns/20-ms_2_1_1_2_2_3_1_unit230.mp3,0,1,0,1,0,1,,,,,,,,,,,,,,,,,,
,,,,,,,,,,,,,train15_audtrain2,2023-11-13_22h00.18.495,AudTraining2,2021.2.3,Win32,145.285486,,,,,,,,,,,,,,RegPatterns/20-ms_2_1_1_2_2_3_1_unit230.mp3,0,2,0,2,0,1,,,,,,,,,,,,,,,,,,
,,,,,,,,,,,,,train15_audtrain2,2023-11-13_22h00.18.495,AudTraining2,2021.2.3,Win32,145.285486,,,,,,,,,,,,,,,,,,,,,1,0.391,0,9,9,11,1,RegPatterns/20-ms_2_1_1_2_2_3_1_unit230.mp3,RegPatterns/20d-ms_2_1_1_2_2_1_3_unit230.mp3,,,,,,,,,
,,,,,,,,,,,,,train15_audtrain2,2023-11-13_22h00.18.495,AudTraining2,2021.2.3,Win32,145.285486,,,,,,,,,,,,,,RegPatterns/09-ms_2_1_1_1_3_4_unit270.mp3,0,0,0,0,0,1,,,,,,,,,,,,,,,,,,
,,,,,,,,,,,,,train15_audtrain2,2023-11-13_22h00.18.495,AudTraining2,2021.2.3,Win32,145.285486,,,,,,,,,,,,,,RegPatterns/09d-ms_2_1_1_3_1_4_unit270.mp3,2,1,0,1,0,1,,,,,,,,,,,,,,,,,,
,,,,,,,,,,,,,train15_audtrain2,2023-11-13_22h00.18.495,AudTraining2,2021.2.3,Win32,145.285486,,,,,,,,,,,,,,RegPatterns/09-ms_2_1_1_1_3_4_unit270.mp3,0,2,0,2,0,1,,,,,,,,,,,,,,,,,,
,,,,,,,,,,,,,train15_audtrain2,2023-11-13_22h00.18.495,AudTraining2,2021.2.3,Win32,145.285486,,,,,,,,,,,,,,,,,,,,,2,0.2368,0,10,10,2,1,RegPatterns/09-ms_2_1_1_1_3_4_unit270.mp3,RegPatterns/09d-ms_2_1_1_3_1_4_unit270.mp3,,,,,,,,,
,,,,,,,,,,,,,train15_audtrain2,2023-11-13_22h00.18.495,AudTraining2,2021.2.3,Win32,145.285486,,,,,,,,,,,,,,RegPatterns/12-ms_3_1_1_3_2_2_unit270.mp3,0,0,0,0,0,1,,,,,,,,,,,,,,,,,,
,,,,,,,,,,,,,train15_audtrain2,2023-11-13_22h00.18.495,AudTraining2,2021.2.3,Win32,145.285486,,,,,,,,,,,,,,RegPatterns/12-ms_3_1_1_3_2_2_unit270.mp3,0,1,0,1,0,1,,,,,,,,,,,,,,,,,,
,,,,,,,,,,,,,train15_audtrain2,2023-11-13_22h00.18.495,AudTraining2,2021.2.3,Win32,145.285486,,,,,,,,,,,,,,RegPatterns/12d-ms_3_1_3_1_2_2_unit270.mp3,3,2,0,2,0,1,,,,,,,,,,,,,,,,,,
,,,,,,,,,,,,,train15_audtrain2,2023-11-13_22h00.18.495,AudTraining2,2021.2.3,Win32,145.285486,,,,,,,,,,,,,,,,,,,,,3,0.258,0,11,11,3,1,RegPatterns/12-ms_3_1_1_3_2_2_unit270.mp3,RegPatterns/12d-ms_3_1_3_1_2_2_unit270.mp3,,,,,,,,,
,,,,,,,,,,,,,train15_audtrain2,2023-11-13_22h00.18.495,AudTraining2,2021.2.3,Win32,145.285486,,,,,,,,,,,,,,RegPatterns/18-ms_4_2_2_1_1_2_unit270.mp3,0,0,0,0,0,1,,,,,,,,,,,,,,,,,,
,,,,,,,,,,,,,train15_audtrain2,2023-11-13_22h00.18.495,AudTraining2,2021.2.3,Win32,145.285486,,,,,,,,,,,,,,RegPatterns/18d-ms_4_2_2_2_1_1_unit270.mp3,2,1,0,1,0,1,,,,,,,,,,,,,,,,,,
,,,,,,,,,,,,,train15_audtrain2,2023-11-13_22h00.18.495,AudTraining2,2021.2.3,Win32,145.285486,,,,,,,,,,,,,,RegPatterns/18-ms_4_2_2_1_1_2_unit270.mp3,0,2,0,2,0,1,,,,,,,,,,,,,,,,,,
,,,,,,,,,,,,,train15_audtrain2,2023-11-13_22h00.18.495,AudTraining2,2021.2.3,Win32,145.285486,,,,,,,,,,,,,,,,,,,,,2,0.1615,1,0,12,6,1,RegPatterns/18-ms_4_2_2_1_1_2_unit270.mp3,RegPatterns/18d-ms_4_2_2_2_1_1_unit270.mp3,,,,,,,,,
,,,,,,,,,,,,,train15_audtrain2,2023-11-13_22h00.18.495,AudTraining2,2021.2.3,Win32,145.285486,,,,,,,,,,,,,,RegPatterns/19-ms_1_1_2_3_1_2_2_unit230.mp3,0,0,0,0,0,1,,,,,,,,,,,,,,,,,,
,,,,,,,,,,,,,train15_audtrain2,2023-11-13_22h00.18.495,AudTraining2,2021.2.3,Win32,145.285486,,,,,,,,,,,,,,RegPatterns/19d-ms_1_1_2_1_3_2_2_unit230.mp3,2,1,0,1,0,1,,,,,,,,,,,,,,,,,,
,,,,,,,,,,,,,train15_audtrain2,2023-11-13_22h00.18.495,AudTraining2,2021.2.3,Win32,145.285486,,,,,,,,,,,,,,RegPatterns/19-ms_1_1_2_3_1_2_2_unit230.mp3,0,2,0,2,0,1,,,,,,,,,,,,,,,,,,
,,,,,,,,,,,,,train15_audtrain2,2023-11-13_22h00.18.495,AudTraining2,2021.2.3,Win32,145.285486,,,,,,,,,,RegPatterns/Noise.mp3,RegPatterns/Noise.mp3,,,,,,,,,,2,0.1052,,,,,,,,g,0.3298,0,0,0,0,1,,
,,,,,,,,,,,,,train15_audtrain2,2023-11-13_22h00.18.495,AudTraining2,2021.2.3,Win32,145.285486,,,,,,,,,,,,,,,,,,,,,,,1,1,13,7,1,RegPatterns/19-ms_1_1_2_3_1_2_2_unit230.mp3,RegPatterns/19d-ms_1_1_2_1_3_2_2_unit230.mp3,,,,,,,,,
,,,,,,,,,,,,,train15_audtrain2,2023-11-13_22h00.18.495,AudTraining2,2021.2.3,Win32,145.285486,,,,,,,,,,,,,,RegPatterns/26-ms_1_1_2_2_1_1_4_unit250.mp3,0,0,0,0,0,1,,,,,,,,,,,,,,,,,,
,,,,,,,,,,,,,train15_audtrain2,2023-11-13_22h00.18.495,AudTraining2,2021.2.3,Win32,145.285486,,,,,,,,,,,,,,RegPatterns/26-ms_1_1_2_2_1_1_4_unit250.mp3,0,1,0,1,0,1,,,,,,,,,,,,,,,,,,
,,,,,,,,,,,,,train15_audtrain2,2023-11-13_22h00.18.495,AudTraining2,2021.2.3,Win32,145.285486,,,,,,,,,,,,,,RegPatterns/26d-ms_1_1_2_1_1_2_4_unit250.mp3,3,2,0,2,0,1,,,,,,,,,,,,,,,,,,
,,,,,,,,,,,,,train15_audtrain2,2023-11-13_22h00.18.495,AudTraining2,2021.2.3,Win32,145.285486,,,,,,,,,,,,,,,,,,,,,3,1.1611,1,2,14,8,1,RegPatterns/26-ms_1_1_2_2_1_1_4_unit250.mp3,RegPatterns/26d-ms_1_1_2_1_1_2_4_unit250.mp3,,,,,,,,,
,,,,,,,,,,,,,train15_audtrain2,2023-11-13_22h00.18.495,AudTraining2,2021.2.3,Win32,145.285486,,,,,,,,,,,,,,RegPatterns/16d-ms_3_1_2_2_3_1_unit230.mp3,1,0,0,0,0,1,,,,,,,,,,,,,,,,,,
,,,,,,,,,,,,,train15_audtrain2,2023-11-13_22h00.18.495,AudTraining2,2021.2.3,Win32,145.285486,,,,,,,,,,,,,,RegPatterns/16-ms_3_1_2_2_1_3_unit230.mp3,0,1,0,1,0,1,,,,,,,,,,,,,,,,,,
,,,,,,,,,,,,,train15_audtrain2,2023-11-13_22h00.18.495,AudTraining2,2021.2.3,Win32,145.285486,,,,,,,,,,,,,,RegPatterns/16-ms_3_1_2_2_1_3_unit230.mp3,0,2,0,2,0,1,,,,,,,,,,,,,,,,,,
,,,,,,,,,,,,,train15_audtrain2,2023-11-13_22h00.18.495,AudTraining2,2021.2.3,Win32,145.285486,,,,,,,,,,,,,,,,,,,,,1,0.1474,1,3,15,5,1,RegPatterns/16-ms_3_1_2_2_1_3_unit230.mp3,RegPatterns/16d-ms_3_1_2_2_3_1_unit230.mp3,,,,,,,,,
,,,,,,,,,,,,,train15_audtrain2,2023-11-13_22h00.18.495,AudTraining2,2021.2.3,Win32,145.285486,,,,,,,,,,,,,,RegPatterns/12d-ms_3_1_3_1_2_2_unit270.mp3,1,0,0,0,0,1,,,,,,,,,,,,,,,,,,
,,,,,,,,,,,,,train15_audtrain2,2023-11-13_22h00.18.495,AudTraining2,2021.2.3,Win32,145.285486,,,,,,,,,,,,,,RegPatterns/12-ms_3_1_1_3_2_2_unit270.mp3,0,1,0,1,0,1,,,,,,,,,,,,,,,,,,
,,,,,,,,,,,,,train15_audtrain2,2023-11-13_22h00.18.495,AudTraining2,2021.2.3,Win32,145.285486,,,,,,,,,,,,,,RegPatterns/12-ms_3_1_1_3_2_2_unit270.mp3,0,2,0,2,0,1,,,,,,,,,,,,,,,,,,
,,,,,,,,,,,,,train15_audtrain2,2023-11-13_22h00.18.495,AudTraining2,2021.2.3,Win32,145.285486,,,,,,,,,,,,,,,,,,,,,1,0.044,1,4,16,3,1,RegPatterns/12-ms_3_1_1_3_2_2_unit270.mp3,RegPatterns/12d-ms_3_1_3_1_2_2_unit270.mp3,,,,,,,,,
,,,,,,,,,,,,,train15_audtrain2,2023-11-13_22h00.18.495,AudTraining2,2021.2.3,Win32,145.285486,,,,,,,,,,,,,,RegPatterns/09-ms_2_1_1_1_3_4_unit270.mp3,0,0,0,0,0,1,,,,,,,,,,,,,,,,,,
,,,,,,,,,,,,,train15_audtrain2,2023-11-13_22h00.18.495,AudTraining2,2021.2.3,Win32,145.285486,,,,,,,,,,,,,,RegPatterns/09-ms_2_1_1_1_3_4_unit270.mp3,0,1,0,1,0,1,,,,,,,,,,,,,,,,,,
,,,,,,,,,,,,,train15_audtrain2,2023-11-13_22h00.18.495,AudTraining2,2021.2.3,Win32,145.285486,,,,,,,,,,,,,,RegPatterns/09d-ms_2_1_1_3_1_4_unit270.mp3,3,2,0,2,0,1,,,,,,,,,,,,,,,,,,
,,,,,,,,,,,,,train15_audtrain2,2023-11-13_22h00.18.495,AudTraining2,2021.2.3,Win32,145.285486,,,,,,,,,,,,,,,,,,,,,1,0.4115,1,5,17,2,1,RegPatterns/09-ms_2_1_1_1_3_4_unit270.mp3,RegPatterns/09d-ms_2_1_1_3_1_4_unit270.mp3,,,,,,,,,
,,,,,,,,,,,,,train15_audtrain2,2023-11-13_22h00.18.495,AudTraining2,2021.2.3,Win32,145.285486,,,,,,,,,,,,,,RegPatterns/14d-ms_2_1_1_4_3_1_unit250.mp3,1,0,0,0,0,1,,,,,,,,,,,,,,,,,,
,,,,,,,,,,,,,train15_audtrain2,2023-11-13_22h00.18.495,AudTraining2,2021.2.3,Win32,145.285486,,,,,,,,,,,,,,RegPatterns/14-ms_2_1_1_4_1_3_unit250.mp3,0,1,0,1,0,1,,,,,,,,,,,,,,,,,,
,,,,,,,,,,,,,train15_audtrain2,2023-11-13_22h00.18.495,AudTraining2,2021.2.3,Win32,145.285486,,,,,,,,,,,,,,RegPatterns/14-ms_2_1_1_4_1_3_unit250.mp3,0,2,0,2,0,1,,,,,,,,,,,,,,,,,,
,,,,,,,,,,,,,train15_audtrain2,2023-11-13_22h00.18.495,AudTraining2,2021.2.3,Win32,145.285486,,,,,,,,,,,,,,,,,,,,,1,0.022,1,6,18,4,1,RegPatterns/14-ms_2_1_1_4_1_3_unit250.mp3,RegPatterns/14d-ms_2_1_1_4_3_1_unit250.mp3,,,,,,,,,
,,,,,,,,,,,,,train15_audtrain2,2023-11-13_22h00.18.495,AudTraining2,2021.2.3,Win32,145.285486,,,,,,,,,,,,,,RegPatterns/20-ms_2_1_1_2_2_3_1_unit230.mp3,0,0,0,0,0,1,,,,,,,,,,,,,,,,,,
,,,,,,,,,,,,,train15_audtrain2,2023-11-13_22h00.18.495,AudTraining2,2021.2.3,Win32,145.285486,,,,,,,,,,,,,,RegPatterns/20d-ms_2_1_1_2_2_1_3_unit230.mp3,2,1,0,1,0,1,,,,,,,,,,,,,,,,,,
,,,,,,,,,,,,,train15_audtrain2,2023-11-13_22h00.18.495,AudTraining2,2021.2.3,Win32,145.285486,,,,,,,,,,,,,,RegPatterns/20-ms_2_1_1_2_2_3_1_unit230.mp3,0,2,0,2,0,1,,,,,,,,,,,,,,,,,,
,,,,,,,,,,,,,train15_audtrain2,2023-11-13_22h00.18.495,AudTraining2,2021.2.3,Win32,145.285486,,,,,,,,,,,,,,,,,,,,,3,0.0921,1,7,19,11,1,RegPatterns/20-ms_2_1_1_2_2_3_1_unit230.mp3,RegPatterns/20d-ms_2_1_1_2_2_1_3_unit230.mp3,,,,,,,,,
,,,,,,,,,,,,,train15_audtrain2,2023-11-13_22h00.18.495,AudTraining2,2021.2.3,Win32,145.285486,,,,,,,,,,,,,,RegPatterns/29d-ms_3_1_2_1_1_3_1_unit250.mp3,1,0,0,0,0,1,,,,,,,,,,,,,,,,,,
,,,,,,,,,,,,,train15_audtrain2,2023-11-13_22h00.18.495,AudTraining2,2021.2.3,Win32,145.285486,,,,,,,,,,,,,,RegPatterns/29-ms_3_1_2_1_1_1_3_unit250.mp3,0,1,0,1,0,1,,,,,,,,,,,,,,,,,,
,,,,,,,,,,,,,train15_audtrain2,2023-11-13_22h00.18.495,AudTraining2,2021.2.3,Win32,145.285486,,,,,,,,,,,,,,RegPatterns/29-ms_3_1_2_1_1_1_3_unit250.mp3,0,2,0,2,0,1,,,,,,,,,,,,,,,,,,
,,,,,,,,,,,,,train15_audtrain2,2023-11-13_22h00.18.495,AudTraining2,2021.2.3,Win32,145.285486,,,,,,,,,,,,,,,,,,,,,3,2.9733,1,8,20,9,1,RegPatterns/29-ms_3_1_2_1_1_1_3_unit250.mp3,RegPatterns/29d-ms_3_1_2_1_1_3_1_unit250.mp3,,,,,,,,,
,,,,,,,,,,,,,train15_audtrain2,2023-11-13_22h00.18.495,AudTraining2,2021.2.3,Win32,145.285486,,,,,,,,,,,,,,RegPatterns/03d-ms_1_3_4_2_2_unit270.mp3,1,0,0,0,0,1,,,,,,,,,,,,,,,,,,
,,,,,,,,,,,,,train15_audtrain2,2023-11-13_22h00.18.495,AudTraining2,2021.2.3,Win32,145.285486,,,,,,,,,,,,,,RegPatterns/03-ms_3_1_4_2_2_unit270.mp3,0,1,0,1,0,1,,,,,,,,,,,,,,,,,,
,,,,,,,,,,,,,train15_audtrain2,2023-11-13_22h00.18.495,AudTraining2,2021.2.3,Win32,145.285486,,,,,,,,,,,,,,RegPatterns/03-ms_3_1_4_2_2_unit270.mp3,0,2,0,2,0,1,,,,,,,,,,,,,,,,,,
,,,,,,,,,,,,,train15_audtrain2,2023-11-13_22h00.18.495,AudTraining2,2021.2.3,Win32,145.285486,,,,,,,,,,,,,,,,,,,,,2,1.9181,1,9,21,1,1,RegPatterns/03-ms_3_1_4_2_2_unit270.mp3,RegPatterns/03d-ms_1_3_4_2_2_unit270.mp3,,,,,,,,,
,,,,,,,,,,,,,train15_audtrain2,2023-11-13_22h00.18.495,AudTraining2,2021.2.3,Win32,145.285486,,,,,,,,,,,,,,RegPatterns/02-ms_3_1_4_1_3_unit250.mp3,0,0,0,0,0,1,,,,,,,,,,,,,,,,,,
,,,,,,,,,,,,,train15_audtrain2,2023-11-13_22h00.18.495,AudTraining2,2021.2.3,Win32,145.285486,,,,,,,,,,,,,,RegPatterns/02d-ms_3_1_4_3_1_unit250.mp3,2,1,0,1,0,1,,,,,,,,,,,,,,,,,,
,,,,,,,,,,,,,train15_audtrain2,2023-11-13_22h00.18.495,AudTraining2,2021.2.3,Win32,145.285486,,,,,,,,,,,,,,RegPatterns/02-ms_3_1_4_1_3_unit250.mp3,0,2,0,2,0,1,,,,,,,,,,,,,,,,,,
,,,,,,,,,,,,,train15_audtrain2,2023-11-13_22h00.18.495,AudTraining2,2021.2.3,Win32,145.285486,,,,,,,,,,,,,,,,,,,,,2,0.1322,1,10,22,0,1,RegPatterns/02-ms_3_1_4_1_3_unit250.mp3,RegPatterns/02d-ms_3_1_4_3_1_unit250.mp3,,,,,,,,,
,,,,,,,,,,,,,train15_audtrain2,2023-11-13_22h00.18.495,AudTraining2,2021.2.3,Win32,145.285486,,,,,,,,,,,,,,RegPatterns/30-ms_3_1_2_2_1_1_2_unit230.mp3,0,0,0,0,0,1,,,,,,,,,,,,,,,,,,
,,,,,,,,,,,,,train15_audtrain2,2023-11-13_22h00.18.495,AudTraining2,2021.2.3,Win32,145.285486,,,,,,,,,,,,,,RegPatterns/30-ms_3_1_2_2_1_1_2_unit230.mp3,0,1,0,1,0,1,,,,,,,,,,,,,,,,,,
,,,,,,,,,,,,,train15_audtrain2,2023-11-13_22h00.18.495,AudTraining2,2021.2.3,Win32,145.285486,,,,,,,,,,,,,,RegPatterns/30d-ms_1_3_2_2_1_1_2_unit230.mp3,3,2,0,2,0,1,,,,,,,,,,,,,,,,,,
,,,,,,,,,,,,,train15_audtrain2,2023-11-13_22h00.18.495,AudTraining2,2021.2.3,Win32,145.285486,,,,,,,,,,,,,,,,,,,,,3,1.9251,1,11,23,10,1,RegPatterns/30-ms_3_1_2_2_1_1_2_unit230.mp3,RegPatterns/30d-ms_1_3_2_2_1_1_2_unit230.mp3,,,,,,,,,
,,,,,,,,,,,,,train15_audtrain2,2023-11-13_22h00.18.495,AudTraining2,2021.2.3,Win32,145.285486,,,,,,,,,,,,,,RegPatterns/29-ms_3_1_2_1_1_1_3_unit250.mp3,0,0,0,0,0,1,,,,,,,,,,,,,,,,,,
,,,,,,,,,,,,,train15_audtrain2,2023-11-13_22h00.18.495,AudTraining2,2021.2.3,Win32,145.285486,,,,,,,,,,,,,,RegPatterns/29d-ms_3_1_2_1_1_3_1_unit250.mp3,2,1,0,1,0,1,,,,,,,,,,,,,,,,,,
,,,,,,,,,,,,,train15_audtrain2,2023-11-13_22h00.18.495,AudTraining2,2021.2.3,Win32,145.285486,,,,,,,,,,,,,,RegPatterns/29-ms_3_1_2_1_1_1_3_unit250.mp3,0,2,0,2,0,1,,,,,,,,,,,,,,,,,,
,,,,,,,,,,,,,train15_audtrain2,2023-11-13_22h00.18.495,AudTraining2,2021.2.3,Win32,145.285486,,,,,,,,,,RegPatterns/Noise.mp3,RegPatterns/Noise.mp3,,,,,,,,,,3,0.2097,,,,,,,,g,0.2936,0,0,0,0,1,,
,,,,,,,,,,,,,train15_audtrain2,2023-11-13_22h00.18.495,AudTraining2,2021.2.3,Win32,145.285486,,,,,,,,,,,,,,,,,,,,,,,2,0,24,9,1,RegPatterns/29-ms_3_1_2_1_1_1_3_unit250.mp3,RegPatterns/29d-ms_3_1_2_1_1_3_1_unit250.mp3,,,,,,,,,
,,,,,,,,,,,,,train15_audtrain2,2023-11-13_22h00.18.495,AudTraining2,2021.2.3,Win32,145.285486,,,,,,,,,,,,,,RegPatterns/19d-ms_1_1_2_1_3_2_2_unit230.mp3,1,0,0,0,0,1,,,,,,,,,,,,,,,,,,
,,,,,,,,,,,,,train15_audtrain2,2023-11-13_22h00.18.495,AudTraining2,2021.2.3,Win32,145.285486,,,,,,,,,,,,,,RegPatterns/19-ms_1_1_2_3_1_2_2_unit230.mp3,0,1,0,1,0,1,,,,,,,,,,,,,,,,,,
,,,,,,,,,,,,,train15_audtrain2,2023-11-13_22h00.18.495,AudTraining2,2021.2.3,Win32,145.285486,,,,,,,,,,,,,,RegPatterns/19-ms_1_1_2_3_1_2_2_unit230.mp3,0,2,0,2,0,1,,,,,,,,,,,,,,,,,,
,,,,,,,,,,,,,train15_audtrain2,2023-11-13_22h00.18.495,AudTraining2,2021.2.3,Win32,145.285486,,,,,,,,,,,,,,,,,,,,,3,1.5579,2,1,25,7,1,RegPatterns/19-ms_1_1_2_3_1_2_2_unit230.mp3,RegPatterns/19d-ms_1_1_2_1_3_2_2_unit230.mp3,,,,,,,,,
,,,,,,,,,,,,,train15_audtrain2,2023-11-13_22h00.18.495,AudTraining2,2021.2.3,Win32,145.285486,,,,,,,,,,,,,,RegPatterns/14-ms_2_1_1_4_1_3_unit250.mp3,0,0,0,0,0,1,,,,,,,,,,,,,,,,,,
,,,,,,,,,,,,,train15_audtrain2,2023-11-13_22h00.18.495,AudTraining2,2021.2.3,Win32,145.285486,,,,,,,,,,,,,,RegPatterns/14d-ms_2_1_1_4_3_1_unit250.mp3,2,1,0,1,0,1,,,,,,,,,,,,,,,,,,
,,,,,,,,,,,,,train15_audtrain2,2023-11-13_22h00.18.495,AudTraining2,2021.2.3,Win32,145.285486,,,,,,,,,,,,,,RegPatterns/14-ms_2_1_1_4_1_3_unit250.mp3,0,2,0,2,0,1,,,,,,,,,,,,,,,,,,
,,,,,,,,,,,,,train15_audtrain2,2023-11-13_22h00.18.495,AudTraining2,2021.2.3,Win32,145.285486,,,,,,,,,,,,,,,,,,,,,3,0.5914,2,2,26,4,1,RegPatterns/14-ms_2_1_1_4_1_3_unit250.mp3,RegPatterns/14d-ms_2_1_1_4_3_1_unit250.mp3,,,,,,,,,
,,,,,,,,,,,,,train15_audtrain2,2023-11-13_22h00.18.495,AudTraining2,2021.2.3,Win32,145.285486,,,,,,,,,,,,,,RegPatterns/16-ms_3_1_2_2_1_3_unit230.mp3,0,0,0,0,0,1,,,,,,,,,,,,,,,,,,
,,,,,,,,,,,,,train15_audtrain2,2023-11-13_22h00.18.495,AudTraining2,2021.2.3,Win32,145.285486,,,,,,,,,,,,,,RegPatterns/16d-ms_3_1_2_2_3_1_unit230.mp3,2,1,0,1,0,1,,,,,,,,,,,,,,,,,,
,,,,,,,,,,,,,train15_audtrain2,2023-11-13_22h00.18.495,AudTraining2,2021.2.3,Win32,145.285486,,,,,,,,,,,,,,RegPatterns/16-ms_3_1_2_2_1_3_unit230.mp3,0,2,0,2,0,1,,,,,,,,,,,,,,,,,,
,,,,,,,,,,,,,train15_audtrain2,2023-11-13_22h00.18.495,AudTraining2,2021.2.3,Win32,145.285486,,,,,,,,,,,,,,,,,,,,,2,1.6468,2,3,27,5,1,RegPatterns/16-ms_3_1_2_2_1_3_unit230.mp3,RegPatterns/16d-ms_3_1_2_2_3_1_unit230.mp3,,,,,,,,,
,,,,,,,,,,,,,train15_audtrain2,2023-11-13_22h00.18.495,AudTraining2,2021.2.3,Win32,145.285486,,,,,,,,,,,,,,RegPatterns/18-ms_4_2_2_1_1_2_unit270.mp3,0,0,0,0,0,1,,,,,,,,,,,,,,,,,,
,,,,,,,,,,,,,train15_audtrain2,2023-11-13_22h00.18.495,AudTraining2,2021.2.3,Win32,145.285486,,,,,,,,,,,,,,RegPatterns/18-ms_4_2_2_1_1_2_unit270.mp3,0,1,0,1,0,1,,,,,,,,,,,,,,,,,,
,,,,,,,,,,,,,train15_audtrain2,2023-11-13_22h00.18.495,AudTraining2,2021.2.3,Win32,145.285486,,,,,,,,,,,,,,RegPatterns/18d-ms_4_2_2_2_1_1_unit270.mp3,3,2,0,2,0,1,,,,,,,,,,,,,,,,,,
,,,,,,,,,,,,,train15_audtrain2,2023-11-13_22h00.18.495,AudTraining2,2021.2.3,Win32,145.285486,,,,,,,,,,,,,,,,,,,,,2,0.0218,2,4,28,6,1,RegPatterns/18-ms_4_2_2_1_1_2_unit270.mp3,RegPatterns/18d-ms_4_2_2_2_1_1_unit270.mp3,,,,,,,,,
,,,,,,,,,,,,,train15_audtrain2,2023-11-13_22h00.18.495,AudTraining2,2021.2.3,Win32,145.285486,,,,,,,,,,,,,,RegPatterns/03-ms_3_1_4_2_2_unit270.mp3,0,0,0,0,0,1,,,,,,,,,,,,,,,,,,
,,,,,,,,,,,,,train15_audtrain2,2023-11-13_22h00.18.495,AudTraining2,2021.2.3,Win32,145.285486,,,,,,,,,,,,,,RegPatterns/03d-ms_1_3_4_2_2_unit270.mp3,2,1,0,1,0,1,,,,,,,,,,,,,,,,,,
,,,,,,,,,,,,,train15_audtrain2,2023-11-13_22h00.18.495,AudTraining2,2021.2.3,Win32,145.285486,,,,,,,,,,,,,,RegPatterns/03-ms_3_1_4_2_2_unit270.mp3,0,2,0,2,0,1,,,,,,,,,,,,,,,,,,
,,,,,,,,,,,,,train15_audtrain2,2023-11-13_22h00.18.495,AudTraining2,2021.2.3,Win32,145.285486,,,,,,,,,,,,,,,,,,,,,1,0.1401,2,5,29,1,1,RegPatterns/03-ms_3_1_4_2_2_unit270.mp3,RegPatterns/03d-ms_1_3_4_2_2_unit270.mp3,,,,,,,,,
,,,,,,,,,,,,,train15_audtrain2,2023-11-13_22h00.18.495,AudTraining2,2021.2.3,Win32,145.285486,,,,,,,,,,,,,,RegPatterns/12-ms_3_1_1_3_2_2_unit270.mp3,0,0,0,0,0,1,,,,,,,,,,,,,,,,,,
,,,,,,,,,,,,,train15_audtrain2,2023-11-13_22h00.18.495,AudTraining2,2021.2.3,Win32,145.285486,,,,,,,,,,,,,,RegPatterns/12d-ms_3_1_3_1_2_2_unit270.mp3,2,1,0,1,0,1,,,,,,,,,,,,,,,,,,
,,,,,,,,,,,,,train15_audtrain2,2023-11-13_22h00.18.495,AudTraining2,2021.2.3,Win32,145.285486,,,,,,,,,,,,,,RegPatterns/12-ms_3_1_1_3_2_2_unit270.mp3,0,2,0,2,0,1,,,,,,,,,,,,,,,,,,
,,,,,,,,,,,,,train15_audtrain2,2023-11-13_22h00.18.495,AudTraining2,2021.2.3,Win32,145.285486,,,,,,,,,,,,,,,,,,,,,3,0.9179,2,6,30,3,1,RegPatterns/12-ms_3_1_1_3_2_2_unit270.mp3,RegPatterns/12d-ms_3_1_3_1_2_2_unit270.mp3,,,,,,,,,
,,,,,,,,,,,,,train15_audtrain2,2023-11-13_22h00.18.495,AudTraining2,2021.2.3,Win32,145.285486,,,,,,,,,,,,,,RegPatterns/20-ms_2_1_1_2_2_3_1_unit230.mp3,0,0,0,0,0,1,,,,,,,,,,,,,,,,,,
,,,,,,,,,,,,,train15_audtrain2,2023-11-13_22h00.18.495,AudTraining2,2021.2.3,Win32,145.285486,,,,,,,,,,,,,,RegPatterns/20-ms_2_1_1_2_2_3_1_unit230.mp3,0,1,0,1,0,1,,,,,,,,,,,,,,,,,,
,,,,,,,,,,,,,train15_audtrain2,2023-11-13_22h00.18.495,AudTraining2,2021.2.3,Win32,145.285486,,,,,,,,,,,,,,RegPatterns/20d-ms_2_1_1_2_2_1_3_unit230.mp3,3,2,0,2,0,1,,,,,,,,,,,,,,,,,,
,,,,,,,,,,,,,train15_audtrain2,2023-11-13_22h00.18.495,AudTraining2,2021.2.3,Win32,145.285486,,,,,,,,,,,,,,,,,,,,,1,3.1606,2,7,31,11,1,RegPatterns/20-ms_2_1_1_2_2_3_1_unit230.mp3,RegPatterns/20d-ms_2_1_1_2_2_1_3_unit230.mp3,,,,,,,,,
,,,,,,,,,,,,,train15_audtrain2,2023-11-13_22h00.18.495,AudTraining2,2021.2.3,Win32,145.285486,,,,,,,,,,,,,,RegPatterns/26-ms_1_1_2_2_1_1_4_unit250.mp3,0,0,0,0,0,1,,,,,,,,,,,,,,,,,,
,,,,,,,,,,,,,train15_audtrain2,2023-11-13_22h00.18.495,AudTraining2,2021.2.3,Win32,145.285486,,,,,,,,,,,,,,RegPatterns/26d-ms_1_1_2_1_1_2_4_unit250.mp3,2,1,0,1,0,1,,,,,,,,,,,,,,,,,,
,,,,,,,,,,,,,train15_audtrain2,2023-11-13_22h00.18.495,AudTraining2,2021.2.3,Win32,145.285486,,,,,,,,,,,,,,RegPatterns/26-ms_1_1_2_2_1_1_4_unit250.mp3,0,2,0,2,0,1,,,,,,,,,,,,,,,,,,
,,,,,,,,,,,,,train15_audtrain2,2023-11-13_22h00.18.495,AudTraining2,2021.2.3,Win32,145.285486,,,,,,,,,,,,,,,,,,,,,3,1.6816,2,8,32,8,1,RegPatterns/26-ms_1_1_2_2_1_1_4_unit250.mp3,RegPatterns/26d-ms_1_1_2_1_1_2_4_unit250.mp3,,,,,,,,,
,,,,,,,,,,,,,train15_audtrain2,2023-11-13_22h00.18.495,AudTraining2,2021.2.3,Win32,145.285486,,,,,,,,,,,,,,RegPatterns/02-ms_3_1_4_1_3_unit250.mp3,0,0,0,0,0,1,,,,,,,,,,,,,,,,,,
,,,,,,,,,,,,,train15_audtrain2,2023-11-13_22h00.18.495,AudTraining2,2021.2.3,Win32,145.285486,,,,,,,,,,,,,,RegPatterns/02-ms_3_1_4_1_3_unit250.mp3,0,1,0,1,0,1,,,,,,,,,,,,,,,,,,
,,,,,,,,,,,,,train15_audtrain2,2023-11-13_22h00.18.495,AudTraining2,2021.2.3,Win32,145.285486,,,,,,,,,,,,,,RegPatterns/02d-ms_3_1_4_3_1_unit250.mp3,3,2,0,2,0,1,,,,,,,,,,,,,,,,,,
,,,,,,,,,,,,,train15_audtrain2,2023-11-13_22h00.18.495,AudTraining2,2021.2.3,Win32,145.285486,,,,,,,,,,,,,,,,,,,,,3,0.2307,2,9,33,0,1,RegPatterns/02-ms_3_1_4_1_3_unit250.mp3,RegPatterns/02d-ms_3_1_4_3_1_unit250.mp3,,,,,,,,,
,,,,,,,,,,,,,train15_audtrain2,2023-11-13_22h00.18.495,AudTraining2,2021.2.3,Win32,145.285486,,,,,,,,,,,,,,RegPatterns/09d-ms_2_1_1_3_1_4_unit270.mp3,1,0,0,0,0,1,,,,,,,,,,,,,,,,,,
,,,,,,,,,,,,,train15_audtrain2,2023-11-13_22h00.18.495,AudTraining2,2021.2.3,Win32,145.285486,,,,,,,,,,,,,,RegPatterns/09-ms_2_1_1_1_3_4_unit270.mp3,0,1,0,1,0,1,,,,,,,,,,,,,,,,,,
,,,,,,,,,,,,,train15_audtrain2,2023-11-13_22h00.18.495,AudTraining2,2021.2.3,Win32,145.285486,,,,,,,,,,,,,,RegPatterns/09-ms_2_1_1_1_3_4_unit270.mp3,0,2,0,2,0,1,,,,,,,,,,,,,,,,,,
,,,,,,,,,,,,,train15_audtrain2,2023-11-13_22h00.18.495,AudTraining2,2021.2.3,Win32,145.285486,,,,,,,,,,,,,,,,,,,,,3,1.3828,2,10,34,2,1,RegPatterns/09-ms_2_1_1_1_3_4_unit270.mp3,RegPatterns/09d-ms_2_1_1_3_1_4_unit270.mp3,,,,,,,,,
,,,,,,,,,,,,,train15_audtrain2,2023-11-13_22h00.18.495,AudTraining2,2021.2.3,Win32,145.285486,,,,,,,,,,,,,,RegPatterns/30-ms_3_1_2_2_1_1_2_unit230.mp3,0,0,0,0,0,1,,,,,,,,,,,,,,,,,,
,,,,,,,,,,,,,train15_audtrain2,2023-11-13_22h00.18.495,AudTraining2,2021.2.3,Win32,145.285486,,,,,,,,,,,,,,RegPatterns/30d-ms_1_3_2_2_1_1_2_unit230.mp3,2,1,0,1,0,1,,,,,,,,,,,,,,,,,,
,,,,,,,,,,,,,train15_audtrain2,2023-11-13_22h00.18.495,AudTraining2,2021.2.3,Win32,145.285486,,,,,,,,,,,,,,RegPatterns/30-ms_3_1_2_2_1_1_2_unit230.mp3,0,2,0,2,0,1,,,,,,,,,,,,,,,,,,
,,,,,,,,,,,,,train15_audtrain2,2023-11-13_22h00.18.495,AudTraining2,2021.2.3,Win32,145.285486,,,,,,,,,,,,,,,,,,,,,2,0.8826,2,11,35,10,1,RegPatterns/30-ms_3_1_2_2_1_1_2_unit230.mp3,RegPatterns/30d-ms_1_3_2_2_1_1_2_unit230.mp3,,,,,,,,,
,,,,,,,,,,,,,train15_audtrain2,2023-11-13_22h00.18.495,AudTraining2,2021.2.3,Win32,145.285486,,,,,,,,,,,,,,,,,,,,,,,,,,,,,,,,,,,,,space,4.9316
