key_resp.keys,key_resp.rt,key_resp_2.keys,key_resp_2.rt,key_resp_3.keys,key_resp_3.rt,trials.thisRepN,trials.thisTrialN,trials.thisN,trials.thisIndex,trials.ran,volstandard,voldeviant,participant,date,expName,psychopyVersion,OS,frameRate,key_resp_4.keys,key_resp_4.rt,key_resp_5.keys,key_resp_5.rt,trials_2.thisRepN,trials_2.thisTrialN,trials_2.thisN,trials_2.thisIndex,trials_2.ran,RegStandardPitch,RegDeviantPitch,key_resp_6.keys,key_resp_6.rt,RegAudSequence,diff-reg,trials_3.thisRepN,trials_3.thisTrialN,trials_3.thisN,trials_3.thisIndex,trials_3.ran,key_resp_7.keys,key_resp_7.rt,trials_5.thisRepN,trials_5.thisTrialN,trials_5.thisN,trials_5.thisIndex,trials_5.ran,standard,devient,key_resp_8.keys,key_resp_8.rt,trials_4.thisRepN,trials_4.thisTrialN,trials_4.thisN,trials_4.thisIndex,trials_4.ran,key_resp_9.keys,key_resp_9.rt
space,2.4793,space,1.598,space,2.5286,0,0,0,0,1,RegPatterns/01-ms_2_2_4_1_3_unit230.mp3,RegPatterns/01d-ms_2_2_4_3_1_unit230.mp3,train15_audtrain2,2023-11-22_22h12.25.298,AudTraining2,2021.2.3,Win32,144.1753172,,,,,,,,,,,,,,,,,,,,,,,,,,,,,,,,,,,,,,
,,,,,,,,,,,,,train15_audtrain2,2023-11-22_22h12.25.298,AudTraining2,2021.2.3,Win32,144.1753172,space,1.7094,g,0.9549,0,0,0,0,1,RegPatterns/Noise.mp3,RegPatterns/Noise.mp3,,,,,,,,,,,,,,,,,,,,,,,,,,,
,,,,,,,,,,,,,train15_audtrain2,2023-11-22_22h12.25.298,AudTraining2,2021.2.3,Win32,144.1753172,,,,,,,,,,,,space,1.4049,RegPatterns/16-ms_3_1_2_2_1_3_unit230.mp3,0,0,0,0,0,1,,,,,,,,,,,,,,,,,,
,,,,,,,,,,,,,train15_audtrain2,2023-11-22_22h12.25.298,AudTraining2,2021.2.3,Win32,144.1753172,,,,,,,,,,,,,,RegPatterns/16-ms_3_1_2_2_1_3_unit230.mp3,0,1,0,1,0,1,,,,,,,,,,,,,,,,,,
,,,,,,,,,,,,,train15_audtrain2,2023-11-22_22h12.25.298,AudTraining2,2021.2.3,Win32,144.1753172,,,,,,,,,,,,,,RegPatterns/16d-ms_3_1_2_2_3_1_unit230.mp3,3,2,0,2,0,1,,,,,,,,,,,,,,,,,,
,,,,,,,,,,,,,train15_audtrain2,2023-11-22_22h12.25.298,AudTraining2,2021.2.3,Win32,144.1753172,,,,,,,,,,,,,,,,,,,,,3,1.383,0,0,0,5,1,RegPatterns/16-ms_3_1_2_2_1_3_unit230.mp3,RegPatterns/16d-ms_3_1_2_2_3_1_unit230.mp3,,,,,,,,,
,,,,,,,,,,,,,train15_audtrain2,2023-11-22_22h12.25.298,AudTraining2,2021.2.3,Win32,144.1753172,,,,,,,,,,,,,,RegPatterns/19-ms_1_1_2_3_1_2_2_unit230.mp3,0,0,0,0,0,1,,,,,,,,,,,,,,,,,,
,,,,,,,,,,,,,train15_audtrain2,2023-11-22_22h12.25.298,AudTraining2,2021.2.3,Win32,144.1753172,,,,,,,,,,,,,,RegPatterns/19d-ms_1_1_2_1_3_2_2_unit230.mp3,2,1,0,1,0,1,,,,,,,,,,,,,,,,,,
,,,,,,,,,,,,,train15_audtrain2,2023-11-22_22h12.25.298,AudTraining2,2021.2.3,Win32,144.1753172,,,,,,,,,,,,,,RegPatterns/19-ms_1_1_2_3_1_2_2_unit230.mp3,0,2,0,2,0,1,,,,,,,,,,,,,,,,,,
,,,,,,,,,,,,,train15_audtrain2,2023-11-22_22h12.25.298,AudTraining2,2021.2.3,Win32,144.1753172,,,,,,,,,,,,,,,,,,,,,2,36.7388,0,1,1,7,1,RegPatterns/19-ms_1_1_2_3_1_2_2_unit230.mp3,RegPatterns/19d-ms_1_1_2_1_3_2_2_unit230.mp3,,,,,,,,,
,,,,,,,,,,,,,train15_audtrain2,2023-11-22_22h12.25.298,AudTraining2,2021.2.3,Win32,144.1753172,,,,,,,,,,,,,,RegPatterns/12-ms_3_1_1_3_2_2_unit270.mp3,0,0,0,0,0,1,,,,,,,,,,,,,,,,,,
,,,,,,,,,,,,,train15_audtrain2,2023-11-22_22h12.25.298,AudTraining2,2021.2.3,Win32,144.1753172,,,,,,,,,,,,,,RegPatterns/12d-ms_3_1_3_1_2_2_unit270.mp3,2,1,0,1,0,1,,,,,,,,,,,,,,,,,,
,,,,,,,,,,,,,train15_audtrain2,2023-11-22_22h12.25.298,AudTraining2,2021.2.3,Win32,144.1753172,,,,,,,,,,,,,,RegPatterns/12-ms_3_1_1_3_2_2_unit270.mp3,0,2,0,2,0,1,,,,,,,,,,,,,,,,,,
,,,,,,,,,,,,,train15_audtrain2,2023-11-22_22h12.25.298,AudTraining2,2021.2.3,Win32,144.1753172,,,,,,,,,,,,,,,,,,,,,2,0.504,0,2,2,3,1,RegPatterns/12-ms_3_1_1_3_2_2_unit270.mp3,RegPatterns/12d-ms_3_1_3_1_2_2_unit270.mp3,,,,,,,,,
,,,,,,,,,,,,,train15_audtrain2,2023-11-22_22h12.25.298,AudTraining2,2021.2.3,Win32,144.1753172,,,,,,,,,,,,,,RegPatterns/02-ms_3_1_4_1_3_unit250.mp3,0,0,0,0,0,1,,,,,,,,,,,,,,,,,,
,,,,,,,,,,,,,train15_audtrain2,2023-11-22_22h12.25.298,AudTraining2,2021.2.3,Win32,144.1753172,,,,,,,,,,,,,,RegPatterns/02d-ms_3_1_4_3_1_unit250.mp3,2,1,0,1,0,1,,,,,,,,,,,,,,,,,,
,,,,,,,,,,,,,train15_audtrain2,2023-11-22_22h12.25.298,AudTraining2,2021.2.3,Win32,144.1753172,,,,,,,,,,,,,,RegPatterns/02-ms_3_1_4_1_3_unit250.mp3,0,2,0,2,0,1,,,,,,,,,,,,,,,,,,
,,,,,,,,,,,,,train15_audtrain2,2023-11-22_22h12.25.298,AudTraining2,2021.2.3,Win32,144.1753172,,,,,,,,,,,,,,,,,,,,,3,1.5454,0,3,3,0,1,RegPatterns/02-ms_3_1_4_1_3_unit250.mp3,RegPatterns/02d-ms_3_1_4_3_1_unit250.mp3,,,,,,,,,
,,,,,,,,,,,,,train15_audtrain2,2023-11-22_22h12.25.298,AudTraining2,2021.2.3,Win32,144.1753172,,,,,,,,,,,,,,RegPatterns/26-ms_1_1_2_2_1_1_4_unit250.mp3,0,0,0,0,0,1,,,,,,,,,,,,,,,,,,
,,,,,,,,,,,,,train15_audtrain2,2023-11-22_22h12.25.298,AudTraining2,2021.2.3,Win32,144.1753172,,,,,,,,,,,,,,RegPatterns/26d-ms_1_1_2_1_1_2_4_unit250.mp3,2,1,0,1,0,1,,,,,,,,,,,,,,,,,,
,,,,,,,,,,,,,train15_audtrain2,2023-11-22_22h12.25.298,AudTraining2,2021.2.3,Win32,144.1753172,,,,,,,,,,,,,,RegPatterns/26-ms_1_1_2_2_1_1_4_unit250.mp3,0,2,0,2,0,1,,,,,,,,,,,,,,,,,,
,,,,,,,,,,,,,train15_audtrain2,2023-11-22_22h12.25.298,AudTraining2,2021.2.3,Win32,144.1753172,,,,,,,,,,,,,,,,,,,,,3,0.1961,0,4,4,8,1,RegPatterns/26-ms_1_1_2_2_1_1_4_unit250.mp3,RegPatterns/26d-ms_1_1_2_1_1_2_4_unit250.mp3,,,,,,,,,
,,,,,,,,,,,,,train15_audtrain2,2023-11-22_22h12.25.298,AudTraining2,2021.2.3,Win32,144.1753172,,,,,,,,,,,,,,RegPatterns/09-ms_2_1_1_1_3_4_unit270.mp3,0,0,0,0,0,1,,,,,,,,,,,,,,,,,,
,,,,,,,,,,,,,train15_audtrain2,2023-11-22_22h12.25.298,AudTraining2,2021.2.3,Win32,144.1753172,,,,,,,,,,,,,,RegPatterns/09d-ms_2_1_1_3_1_4_unit270.mp3,2,1,0,1,0,1,,,,,,,,,,,,,,,,,,
,,,,,,,,,,,,,train15_audtrain2,2023-11-22_22h12.25.298,AudTraining2,2021.2.3,Win32,144.1753172,,,,,,,,,,,,,,RegPatterns/09-ms_2_1_1_1_3_4_unit270.mp3,0,2,0,2,0,1,,,,,,,,,,,,,,,,,,
,,,,,,,,,,,,,train15_audtrain2,2023-11-22_22h12.25.298,AudTraining2,2021.2.3,Win32,144.1753172,,,,,,,,,,,,,,,,,,,,,1,0.0919,0,5,5,2,1,RegPatterns/09-ms_2_1_1_1_3_4_unit270.mp3,RegPatterns/09d-ms_2_1_1_3_1_4_unit270.mp3,,,,,,,,,
,,,,,,,,,,,,,train15_audtrain2,2023-11-22_22h12.25.298,AudTraining2,2021.2.3,Win32,144.1753172,,,,,,,,,,,,,,RegPatterns/14d-ms_2_1_1_4_3_1_unit250.mp3,1,0,0,0,0,1,,,,,,,,,,,,,,,,,,
,,,,,,,,,,,,,train15_audtrain2,2023-11-22_22h12.25.298,AudTraining2,2021.2.3,Win32,144.1753172,,,,,,,,,,,,,,RegPatterns/14-ms_2_1_1_4_1_3_unit250.mp3,0,1,0,1,0,1,,,,,,,,,,,,,,,,,,
,,,,,,,,,,,,,train15_audtrain2,2023-11-22_22h12.25.298,AudTraining2,2021.2.3,Win32,144.1753172,,,,,,,,,,,,,,RegPatterns/14-ms_2_1_1_4_1_3_unit250.mp3,0,2,0,2,0,1,,,,,,,,,,,,,,,,,,
,,,,,,,,,,,,,train15_audtrain2,2023-11-22_22h12.25.298,AudTraining2,2021.2.3,Win32,144.1753172,,,,,,,,,,,,,,,,,,,,,1,3.2935,0,6,6,4,1,RegPatterns/14-ms_2_1_1_4_1_3_unit250.mp3,RegPatterns/14d-ms_2_1_1_4_3_1_unit250.mp3,,,,,,,,,
,,,,,,,,,,,,,train15_audtrain2,2023-11-22_22h12.25.298,AudTraining2,2021.2.3,Win32,144.1753172,,,,,,,,,,,,,,RegPatterns/18d-ms_4_2_2_2_1_1_unit270.mp3,1,0,0,0,0,1,,,,,,,,,,,,,,,,,,
,,,,,,,,,,,,,train15_audtrain2,2023-11-22_22h12.25.298,AudTraining2,2021.2.3,Win32,144.1753172,,,,,,,,,,,,,,RegPatterns/18-ms_4_2_2_1_1_2_unit270.mp3,0,1,0,1,0,1,,,,,,,,,,,,,,,,,,
,,,,,,,,,,,,,train15_audtrain2,2023-11-22_22h12.25.298,AudTraining2,2021.2.3,Win32,144.1753172,,,,,,,,,,,,,,RegPatterns/18-ms_4_2_2_1_1_2_unit270.mp3,0,2,0,2,0,1,,,,,,,,,,,,,,,,,,
,,,,,,,,,,,,,train15_audtrain2,2023-11-22_22h12.25.298,AudTraining2,2021.2.3,Win32,144.1753172,,,,,,,,,,,,,,,,,,,,,2,3.0147,0,7,7,6,1,RegPatterns/18-ms_4_2_2_1_1_2_unit270.mp3,RegPatterns/18d-ms_4_2_2_2_1_1_unit270.mp3,,,,,,,,,
,,,,,,,,,,,,,train15_audtrain2,2023-11-22_22h12.25.298,AudTraining2,2021.2.3,Win32,144.1753172,,,,,,,,,,,,,,RegPatterns/29-ms_3_1_2_1_1_1_3_unit250.mp3,0,0,0,0,0,1,,,,,,,,,,,,,,,,,,
,,,,,,,,,,,,,train15_audtrain2,2023-11-22_22h12.25.298,AudTraining2,2021.2.3,Win32,144.1753172,,,,,,,,,,,,,,RegPatterns/29d-ms_3_1_2_1_1_3_1_unit250.mp3,2,1,0,1,0,1,,,,,,,,,,,,,,,,,,
,,,,,,,,,,,,,train15_audtrain2,2023-11-22_22h12.25.298,AudTraining2,2021.2.3,Win32,144.1753172,,,,,,,,,,,,,,RegPatterns/29-ms_3_1_2_1_1_1_3_unit250.mp3,0,2,0,2,0,1,,,,,,,,,,,,,,,,,,
,,,,,,,,,,,,,train15_audtrain2,2023-11-22_22h12.25.298,AudTraining2,2021.2.3,Win32,144.1753172,,,,,,,,,,,,,,,,,,,,,1,5.3568,0,8,8,9,1,RegPatterns/29-ms_3_1_2_1_1_1_3_unit250.mp3,RegPatterns/29d-ms_3_1_2_1_1_3_1_unit250.mp3,,,,,,,,,
,,,,,,,,,,,,,train15_audtrain2,2023-11-22_22h12.25.298,AudTraining2,2021.2.3,Win32,144.1753172,,,,,,,,,,,,,,RegPatterns/30-ms_3_1_2_2_1_1_2_unit230.mp3,0,0,0,0,0,1,,,,,,,,,,,,,,,,,,
,,,,,,,,,,,,,train15_audtrain2,2023-11-22_22h12.25.298,AudTraining2,2021.2.3,Win32,144.1753172,,,,,,,,,,,,,,RegPatterns/30-ms_3_1_2_2_1_1_2_unit230.mp3,0,1,0,1,0,1,,,,,,,,,,,,,,,,,,
,,,,,,,,,,,,,train15_audtrain2,2023-11-22_22h12.25.298,AudTraining2,2021.2.3,Win32,144.1753172,,,,,,,,,,,,,,RegPatterns/30d-ms_1_3_2_2_1_1_2_unit230.mp3,3,2,0,2,0,1,,,,,,,,,,,,,,,,,,
,,,,,,,,,,,,,train15_audtrain2,2023-11-22_22h12.25.298,AudTraining2,2021.2.3,Win32,144.1753172,,,,,,,,,,,,,,,,,,,,,3,1.2946,0,9,9,10,1,RegPatterns/30-ms_3_1_2_2_1_1_2_unit230.mp3,RegPatterns/30d-ms_1_3_2_2_1_1_2_unit230.mp3,,,,,,,,,
,,,,,,,,,,,,,train15_audtrain2,2023-11-22_22h12.25.298,AudTraining2,2021.2.3,Win32,144.1753172,,,,,,,,,,,,,,RegPatterns/20-ms_2_1_1_2_2_3_1_unit230.mp3,0,0,0,0,0,1,,,,,,,,,,,,,,,,,,
,,,,,,,,,,,,,train15_audtrain2,2023-11-22_22h12.25.298,AudTraining2,2021.2.3,Win32,144.1753172,,,,,,,,,,,,,,RegPatterns/20d-ms_2_1_1_2_2_1_3_unit230.mp3,2,1,0,1,0,1,,,,,,,,,,,,,,,,,,
,,,,,,,,,,,,,train15_audtrain2,2023-11-22_22h12.25.298,AudTraining2,2021.2.3,Win32,144.1753172,,,,,,,,,,,,,,RegPatterns/20-ms_2_1_1_2_2_3_1_unit230.mp3,0,2,0,2,0,1,,,,,,,,,,,,,,,,,,
,,,,,,,,,,,,,train15_audtrain2,2023-11-22_22h12.25.298,AudTraining2,2021.2.3,Win32,144.1753172,,,,,,,,,,,,,,,,,,,,,2,1.3416,0,10,10,11,1,RegPatterns/20-ms_2_1_1_2_2_3_1_unit230.mp3,RegPatterns/20d-ms_2_1_1_2_2_1_3_unit230.mp3,,,,,,,,,
,,,,,,,,,,,,,train15_audtrain2,2023-11-22_22h12.25.298,AudTraining2,2021.2.3,Win32,144.1753172,,,,,,,,,,,,,,RegPatterns/03-ms_3_1_4_2_2_unit270.mp3,0,0,0,0,0,1,,,,,,,,,,,,,,,,,,
,,,,,,,,,,,,,train15_audtrain2,2023-11-22_22h12.25.298,AudTraining2,2021.2.3,Win32,144.1753172,,,,,,,,,,,,,,RegPatterns/03d-ms_1_3_4_2_2_unit270.mp3,2,1,0,1,0,1,,,,,,,,,,,,,,,,,,
,,,,,,,,,,,,,train15_audtrain2,2023-11-22_22h12.25.298,AudTraining2,2021.2.3,Win32,144.1753172,,,,,,,,,,,,,,RegPatterns/03-ms_3_1_4_2_2_unit270.mp3,0,2,0,2,0,1,,,,,,,,,,,,,,,,,,
,,,,,,,,,,,,,train15_audtrain2,2023-11-22_22h12.25.298,AudTraining2,2021.2.3,Win32,144.1753172,,,,,,,,,,,,,,,,,,,,,3,2.162,0,11,11,1,1,RegPatterns/03-ms_3_1_4_2_2_unit270.mp3,RegPatterns/03d-ms_1_3_4_2_2_unit270.mp3,,,,,,,,,
,,,,,,,,,,,,,train15_audtrain2,2023-11-22_22h12.25.298,AudTraining2,2021.2.3,Win32,144.1753172,,,,,,,,,,,,,,RegPatterns/18-ms_4_2_2_1_1_2_unit270.mp3,0,0,0,0,0,1,,,,,,,,,,,,,,,,,,
,,,,,,,,,,,,,train15_audtrain2,2023-11-22_22h12.25.298,AudTraining2,2021.2.3,Win32,144.1753172,,,,,,,,,,,,,,RegPatterns/18-ms_4_2_2_1_1_2_unit270.mp3,0,1,0,1,0,1,,,,,,,,,,,,,,,,,,
,,,,,,,,,,,,,train15_audtrain2,2023-11-22_22h12.25.298,AudTraining2,2021.2.3,Win32,144.1753172,,,,,,,,,,,,,,RegPatterns/18d-ms_4_2_2_2_1_1_unit270.mp3,3,2,0,2,0,1,,,,,,,,,,,,,,,,,,
,,,,,,,,,,,,,train15_audtrain2,2023-11-22_22h12.25.298,AudTraining2,2021.2.3,Win32,144.1753172,,,,,,,,,,,,,,,,,,,,,1,0.0366,1,0,12,6,1,RegPatterns/18-ms_4_2_2_1_1_2_unit270.mp3,RegPatterns/18d-ms_4_2_2_2_1_1_unit270.mp3,,,,,,,,,
,,,,,,,,,,,,,train15_audtrain2,2023-11-22_22h12.25.298,AudTraining2,2021.2.3,Win32,144.1753172,,,,,,,,,,,,,,RegPatterns/26-ms_1_1_2_2_1_1_4_unit250.mp3,0,0,0,0,0,1,,,,,,,,,,,,,,,,,,
,,,,,,,,,,,,,train15_audtrain2,2023-11-22_22h12.25.298,AudTraining2,2021.2.3,Win32,144.1753172,,,,,,,,,,,,,,RegPatterns/26-ms_1_1_2_2_1_1_4_unit250.mp3,0,1,0,1,0,1,,,,,,,,,,,,,,,,,,
,,,,,,,,,,,,,train15_audtrain2,2023-11-22_22h12.25.298,AudTraining2,2021.2.3,Win32,144.1753172,,,,,,,,,,,,,,RegPatterns/26d-ms_1_1_2_1_1_2_4_unit250.mp3,3,2,0,2,0,1,,,,,,,,,,,,,,,,,,
,,,,,,,,,,,,,train15_audtrain2,2023-11-22_22h12.25.298,AudTraining2,2021.2.3,Win32,144.1753172,,,,,,,,,,RegPatterns/Noise.mp3,RegPatterns/Noise.mp3,,,,,,,,,,1,0.0363,,,,,,,,g,0.4645,0,0,0,0,1,,
,,,,,,,,,,,,,train15_audtrain2,2023-11-22_22h12.25.298,AudTraining2,2021.2.3,Win32,144.1753172,,,,,,,,,,,,,,,,,,,,,,,1,1,13,8,1,RegPatterns/26-ms_1_1_2_2_1_1_4_unit250.mp3,RegPatterns/26d-ms_1_1_2_1_1_2_4_unit250.mp3,,,,,,,,,
,,,,,,,,,,,,,train15_audtrain2,2023-11-22_22h12.25.298,AudTraining2,2021.2.3,Win32,144.1753172,,,,,,,,,,,,,,RegPatterns/12-ms_3_1_1_3_2_2_unit270.mp3,0,0,0,0,0,1,,,,,,,,,,,,,,,,,,
,,,,,,,,,,,,,train15_audtrain2,2023-11-22_22h12.25.298,AudTraining2,2021.2.3,Win32,144.1753172,,,,,,,,,,,,,,RegPatterns/12-ms_3_1_1_3_2_2_unit270.mp3,0,1,0,1,0,1,,,,,,,,,,,,,,,,,,
,,,,,,,,,,,,,train15_audtrain2,2023-11-22_22h12.25.298,AudTraining2,2021.2.3,Win32,144.1753172,,,,,,,,,,,,,,RegPatterns/12d-ms_3_1_3_1_2_2_unit270.mp3,3,2,0,2,0,1,,,,,,,,,,,,,,,,,,
,,,,,,,,,,,,,train15_audtrain2,2023-11-22_22h12.25.298,AudTraining2,2021.2.3,Win32,144.1753172,,,,,,,,,,,,,,,,,,,,,3,0.0725,1,2,14,3,1,RegPatterns/12-ms_3_1_1_3_2_2_unit270.mp3,RegPatterns/12d-ms_3_1_3_1_2_2_unit270.mp3,,,,,,,,,
,,,,,,,,,,,,,train15_audtrain2,2023-11-22_22h12.25.298,AudTraining2,2021.2.3,Win32,144.1753172,,,,,,,,,,,,,,RegPatterns/19d-ms_1_1_2_1_3_2_2_unit230.mp3,1,0,0,0,0,1,,,,,,,,,,,,,,,,,,
,,,,,,,,,,,,,train15_audtrain2,2023-11-22_22h12.25.298,AudTraining2,2021.2.3,Win32,144.1753172,,,,,,,,,,,,,,RegPatterns/19-ms_1_1_2_3_1_2_2_unit230.mp3,0,1,0,1,0,1,,,,,,,,,,,,,,,,,,
,,,,,,,,,,,,,train15_audtrain2,2023-11-22_22h12.25.298,AudTraining2,2021.2.3,Win32,144.1753172,,,,,,,,,,,,,,RegPatterns/19-ms_1_1_2_3_1_2_2_unit230.mp3,0,2,0,2,0,1,,,,,,,,,,,,,,,,,,
,,,,,,,,,,,,,train15_audtrain2,2023-11-22_22h12.25.298,AudTraining2,2021.2.3,Win32,144.1753172,,,,,,,,,,,,,,,,,,,,,3,113.9331,1,3,15,7,1,RegPatterns/19-ms_1_1_2_3_1_2_2_unit230.mp3,RegPatterns/19d-ms_1_1_2_1_3_2_2_unit230.mp3,,,,,,,,,
,,,,,,,,,,,,,train15_audtrain2,2023-11-22_22h12.25.298,AudTraining2,2021.2.3,Win32,144.1753172,,,,,,,,,,,,,,RegPatterns/09d-ms_2_1_1_3_1_4_unit270.mp3,1,0,0,0,0,1,,,,,,,,,,,,,,,,,,
,,,,,,,,,,,,,train15_audtrain2,2023-11-22_22h12.25.298,AudTraining2,2021.2.3,Win32,144.1753172,,,,,,,,,,,,,,RegPatterns/09-ms_2_1_1_1_3_4_unit270.mp3,0,1,0,1,0,1,,,,,,,,,,,,,,,,,,
,,,,,,,,,,,,,train15_audtrain2,2023-11-22_22h12.25.298,AudTraining2,2021.2.3,Win32,144.1753172,,,,,,,,,,,,,,RegPatterns/09-ms_2_1_1_1_3_4_unit270.mp3,0,2,0,2,0,1,,,,,,,,,,,,,,,,,,
,,,,,,,,,,,,,train15_audtrain2,2023-11-22_22h12.25.298,AudTraining2,2021.2.3,Win32,144.1753172,,,,,,,,,,,,,,,,,,,,,3,2.8898,1,4,16,2,1,RegPatterns/09-ms_2_1_1_1_3_4_unit270.mp3,RegPatterns/09d-ms_2_1_1_3_1_4_unit270.mp3,,,,,,,,,
,,,,,,,,,,,,,train15_audtrain2,2023-11-22_22h12.25.298,AudTraining2,2021.2.3,Win32,144.1753172,,,,,,,,,,,,,,RegPatterns/14-ms_2_1_1_4_1_3_unit250.mp3,0,0,0,0,0,1,,,,,,,,,,,,,,,,,,
,,,,,,,,,,,,,train15_audtrain2,2023-11-22_22h12.25.298,AudTraining2,2021.2.3,Win32,144.1753172,,,,,,,,,,,,,,RegPatterns/14d-ms_2_1_1_4_3_1_unit250.mp3,2,1,0,1,0,1,,,,,,,,,,,,,,,,,,
,,,,,,,,,,,,,train15_audtrain2,2023-11-22_22h12.25.298,AudTraining2,2021.2.3,Win32,144.1753172,,,,,,,,,,,,,,RegPatterns/14-ms_2_1_1_4_1_3_unit250.mp3,0,2,0,2,0,1,,,,,,,,,,,,,,,,,,
,,,,,,,,,,,,,train15_audtrain2,2023-11-22_22h12.25.298,AudTraining2,2021.2.3,Win32,144.1753172,,,,,,,,,,,,,,,,,,,,,3,16.4807,1,5,17,4,1,RegPatterns/14-ms_2_1_1_4_1_3_unit250.mp3,RegPatterns/14d-ms_2_1_1_4_3_1_unit250.mp3,,,,,,,,,
,,,,,,,,,,,,,train15_audtrain2,2023-11-22_22h12.25.298,AudTraining2,2021.2.3,Win32,144.1753172,,,,,,,,,,,,,,RegPatterns/02-ms_3_1_4_1_3_unit250.mp3,0,0,0,0,0,1,,,,,,,,,,,,,,,,,,
,,,,,,,,,,,,,train15_audtrain2,2023-11-22_22h12.25.298,AudTraining2,2021.2.3,Win32,144.1753172,,,,,,,,,,,,,,RegPatterns/02-ms_3_1_4_1_3_unit250.mp3,0,1,0,1,0,1,,,,,,,,,,,,,,,,,,
,,,,,,,,,,,,,train15_audtrain2,2023-11-22_22h12.25.298,AudTraining2,2021.2.3,Win32,144.1753172,,,,,,,,,,,,,,RegPatterns/02d-ms_3_1_4_3_1_unit250.mp3,3,2,0,2,0,1,,,,,,,,,,,,,,,,,,
,,,,,,,,,,,,,train15_audtrain2,2023-11-22_22h12.25.298,AudTraining2,2021.2.3,Win32,144.1753172,,,,,,,,,,,,,,,,,,,,,3,0.1552,1,6,18,0,1,RegPatterns/02-ms_3_1_4_1_3_unit250.mp3,RegPatterns/02d-ms_3_1_4_3_1_unit250.mp3,,,,,,,,,
,,,,,,,,,,,,,train15_audtrain2,2023-11-22_22h12.25.298,AudTraining2,2021.2.3,Win32,144.1753172,,,,,,,,,,,,,,RegPatterns/16d-ms_3_1_2_2_3_1_unit230.mp3,1,0,0,0,0,1,,,,,,,,,,,,,,,,,,
,,,,,,,,,,,,,train15_audtrain2,2023-11-22_22h12.25.298,AudTraining2,2021.2.3,Win32,144.1753172,,,,,,,,,,,,,,RegPatterns/16-ms_3_1_2_2_1_3_unit230.mp3,0,1,0,1,0,1,,,,,,,,,,,,,,,,,,
,,,,,,,,,,,,,train15_audtrain2,2023-11-22_22h12.25.298,AudTraining2,2021.2.3,Win32,144.1753172,,,,,,,,,,,,,,RegPatterns/16-ms_3_1_2_2_1_3_unit230.mp3,0,2,0,2,0,1,,,,,,,,,,,,,,,,,,
,,,,,,,,,,,,,train15_audtrain2,2023-11-22_22h12.25.298,AudTraining2,2021.2.3,Win32,144.1753172,,,,,,,,,,,,,,,,,,,,,1,0.2238,1,7,19,5,1,RegPatterns/16-ms_3_1_2_2_1_3_unit230.mp3,RegPatterns/16d-ms_3_1_2_2_3_1_unit230.mp3,,,,,,,,,
,,,,,,,,,,,,,train15_audtrain2,2023-11-22_22h12.25.298,AudTraining2,2021.2.3,Win32,144.1753172,,,,,,,,,,,,,,RegPatterns/20-ms_2_1_1_2_2_3_1_unit230.mp3,0,0,0,0,0,1,,,,,,,,,,,,,,,,,,
,,,,,,,,,,,,,train15_audtrain2,2023-11-22_22h12.25.298,AudTraining2,2021.2.3,Win32,144.1753172,,,,,,,,,,,,,,RegPatterns/20-ms_2_1_1_2_2_3_1_unit230.mp3,0,1,0,1,0,1,,,,,,,,,,,,,,,,,,
,,,,,,,,,,,,,train15_audtrain2,2023-11-22_22h12.25.298,AudTraining2,2021.2.3,Win32,144.1753172,,,,,,,,,,,,,,RegPatterns/20d-ms_2_1_1_2_2_1_3_unit230.mp3,3,2,0,2,0,1,,,,,,,,,,,,,,,,,,
,,,,,,,,,,,,,train15_audtrain2,2023-11-22_22h12.25.298,AudTraining2,2021.2.3,Win32,144.1753172,,,,,,,,,,,,,,,,,,,,,3,1.3276,1,8,20,11,1,RegPatterns/20-ms_2_1_1_2_2_3_1_unit230.mp3,RegPatterns/20d-ms_2_1_1_2_2_1_3_unit230.mp3,,,,,,,,,
,,,,,,,,,,,,,train15_audtrain2,2023-11-22_22h12.25.298,AudTraining2,2021.2.3,Win32,144.1753172,,,,,,,,,,,,,,RegPatterns/30d-ms_1_3_2_2_1_1_2_unit230.mp3,1,0,0,0,0,1,,,,,,,,,,,,,,,,,,
,,,,,,,,,,,,,train15_audtrain2,2023-11-22_22h12.25.298,AudTraining2,2021.2.3,Win32,144.1753172,,,,,,,,,,,,,,RegPatterns/30-ms_3_1_2_2_1_1_2_unit230.mp3,0,1,0,1,0,1,,,,,,,,,,,,,,,,,,
,,,,,,,,,,,,,train15_audtrain2,2023-11-22_22h12.25.298,AudTraining2,2021.2.3,Win32,144.1753172,,,,,,,,,,,,,,RegPatterns/30-ms_3_1_2_2_1_1_2_unit230.mp3,0,2,0,2,0,1,,,,,,,,,,,,,,,,,,
,,,,,,,,,,,,,train15_audtrain2,2023-11-22_22h12.25.298,AudTraining2,2021.2.3,Win32,144.1753172,,,,,,,,,,,,,,,,,,,,,3,3.6547,1,9,21,10,1,RegPatterns/30-ms_3_1_2_2_1_1_2_unit230.mp3,RegPatterns/30d-ms_1_3_2_2_1_1_2_unit230.mp3,,,,,,,,,
,,,,,,,,,,,,,train15_audtrain2,2023-11-22_22h12.25.298,AudTraining2,2021.2.3,Win32,144.1753172,,,,,,,,,,,,,,RegPatterns/29d-ms_3_1_2_1_1_3_1_unit250.mp3,1,0,0,0,0,1,,,,,,,,,,,,,,,,,,
,,,,,,,,,,,,,train15_audtrain2,2023-11-22_22h12.25.298,AudTraining2,2021.2.3,Win32,144.1753172,,,,,,,,,,,,,,RegPatterns/29-ms_3_1_2_1_1_1_3_unit250.mp3,0,1,0,1,0,1,,,,,,,,,,,,,,,,,,
,,,,,,,,,,,,,train15_audtrain2,2023-11-22_22h12.25.298,AudTraining2,2021.2.3,Win32,144.1753172,,,,,,,,,,,,,,RegPatterns/29-ms_3_1_2_1_1_1_3_unit250.mp3,0,2,0,2,0,1,,,,,,,,,,,,,,,,,,
,,,,,,,,,,,,,train15_audtrain2,2023-11-22_22h12.25.298,AudTraining2,2021.2.3,Win32,144.1753172,,,,,,,,,,,,,,,,,,,,,3,5.7462,1,10,22,9,1,RegPatterns/29-ms_3_1_2_1_1_1_3_unit250.mp3,RegPatterns/29d-ms_3_1_2_1_1_3_1_unit250.mp3,,,,,,,,,
,,,,,,,,,,,,,train15_audtrain2,2023-11-22_22h12.25.298,AudTraining2,2021.2.3,Win32,144.1753172,,,,,,,,,,,,,,RegPatterns/03-ms_3_1_4_2_2_unit270.mp3,0,0,0,0,0,1,,,,,,,,,,,,,,,,,,
,,,,,,,,,,,,,train15_audtrain2,2023-11-22_22h12.25.298,AudTraining2,2021.2.3,Win32,144.1753172,,,,,,,,,,,,,,RegPatterns/03-ms_3_1_4_2_2_unit270.mp3,0,1,0,1,0,1,,,,,,,,,,,,,,,,,,
,,,,,,,,,,,,,train15_audtrain2,2023-11-22_22h12.25.298,AudTraining2,2021.2.3,Win32,144.1753172,,,,,,,,,,,,,,RegPatterns/03d-ms_1_3_4_2_2_unit270.mp3,3,2,0,2,0,1,,,,,,,,,,,,,,,,,,
,,,,,,,,,,,,,train15_audtrain2,2023-11-22_22h12.25.298,AudTraining2,2021.2.3,Win32,144.1753172,,,,,,,,,,,,,,,,,,,,,3,1.809,1,11,23,1,1,RegPatterns/03-ms_3_1_4_2_2_unit270.mp3,RegPatterns/03d-ms_1_3_4_2_2_unit270.mp3,,,,,,,,,
,,,,,,,,,,,,,train15_audtrain2,2023-11-22_22h12.25.298,AudTraining2,2021.2.3,Win32,144.1753172,,,,,,,,,,,,,,RegPatterns/20d-ms_2_1_1_2_2_1_3_unit230.mp3,1,0,0,0,0,1,,,,,,,,,,,,,,,,,,
,,,,,,,,,,,,,train15_audtrain2,2023-11-22_22h12.25.298,AudTraining2,2021.2.3,Win32,144.1753172,,,,,,,,,,,,,,RegPatterns/20-ms_2_1_1_2_2_3_1_unit230.mp3,0,1,0,1,0,1,,,,,,,,,,,,,,,,,,
,,,,,,,,,,,,,train15_audtrain2,2023-11-22_22h12.25.298,AudTraining2,2021.2.3,Win32,144.1753172,,,,,,,,,,,,,,RegPatterns/20-ms_2_1_1_2_2_3_1_unit230.mp3,0,2,0,2,0,1,,,,,,,,,,,,,,,,,,
,,,,,,,,,,,,,train15_audtrain2,2023-11-22_22h12.25.298,AudTraining2,2021.2.3,Win32,144.1753172,,,,,,,,,,RegPatterns/Noise.mp3,RegPatterns/Noise.mp3,,,,,,,,,,3,0.6949,,,,,,,,g,6.3487,0,0,0,0,1,,
,,,,,,,,,,,,,train15_audtrain2,2023-11-22_22h12.25.298,AudTraining2,2021.2.3,Win32,144.1753172,,,,,,,,,,,,,,,,,,,,,,,2,0,24,11,1,RegPatterns/20-ms_2_1_1_2_2_3_1_unit230.mp3,RegPatterns/20d-ms_2_1_1_2_2_1_3_unit230.mp3,,,,,,,,,
,,,,,,,,,,,,,train15_audtrain2,2023-11-22_22h12.25.298,AudTraining2,2021.2.3,Win32,144.1753172,,,,,,,,,,,,,,RegPatterns/29-ms_3_1_2_1_1_1_3_unit250.mp3,0,0,0,0,0,1,,,,,,,,,,,,,,,,,,
,,,,,,,,,,,,,train15_audtrain2,2023-11-22_22h12.25.298,AudTraining2,2021.2.3,Win32,144.1753172,,,,,,,,,,,,,,RegPatterns/29-ms_3_1_2_1_1_1_3_unit250.mp3,0,1,0,1,0,1,,,,,,,,,,,,,,,,,,
,,,,,,,,,,,,,train15_audtrain2,2023-11-22_22h12.25.298,AudTraining2,2021.2.3,Win32,144.1753172,,,,,,,,,,,,,,RegPatterns/29d-ms_3_1_2_1_1_3_1_unit250.mp3,3,2,0,2,0,1,,,,,,,,,,,,,,,,,,
,,,,,,,,,,,,,train15_audtrain2,2023-11-22_22h12.25.298,AudTraining2,2021.2.3,Win32,144.1753172,,,,,,,,,,,,,,,,,,,,,3,1.3019,2,1,25,9,1,RegPatterns/29-ms_3_1_2_1_1_1_3_unit250.mp3,RegPatterns/29d-ms_3_1_2_1_1_3_1_unit250.mp3,,,,,,,,,
,,,,,,,,,,,,,train15_audtrain2,2023-11-22_22h12.25.298,AudTraining2,2021.2.3,Win32,144.1753172,,,,,,,,,,,,,,RegPatterns/12d-ms_3_1_3_1_2_2_unit270.mp3,1,0,0,0,0,1,,,,,,,,,,,,,,,,,,
,,,,,,,,,,,,,train15_audtrain2,2023-11-22_22h12.25.298,AudTraining2,2021.2.3,Win32,144.1753172,,,,,,,,,,,,,,RegPatterns/12-ms_3_1_1_3_2_2_unit270.mp3,0,1,0,1,0,1,,,,,,,,,,,,,,,,,,
,,,,,,,,,,,,,train15_audtrain2,2023-11-22_22h12.25.298,AudTraining2,2021.2.3,Win32,144.1753172,,,,,,,,,,,,,,RegPatterns/12-ms_3_1_1_3_2_2_unit270.mp3,0,2,0,2,0,1,,,,,,,,,,,,,,,,,,
,,,,,,,,,,,,,train15_audtrain2,2023-11-22_22h12.25.298,AudTraining2,2021.2.3,Win32,144.1753172,,,,,,,,,,,,,,,,,,,,,3,35.8953,2,2,26,3,1,RegPatterns/12-ms_3_1_1_3_2_2_unit270.mp3,RegPatterns/12d-ms_3_1_3_1_2_2_unit270.mp3,,,,,,,,,
,,,,,,,,,,,,,train15_audtrain2,2023-11-22_22h12.25.298,AudTraining2,2021.2.3,Win32,144.1753172,,,,,,,,,,,,,,RegPatterns/02d-ms_3_1_4_3_1_unit250.mp3,1,0,0,0,0,1,,,,,,,,,,,,,,,,,,
,,,,,,,,,,,,,train15_audtrain2,2023-11-22_22h12.25.298,AudTraining2,2021.2.3,Win32,144.1753172,,,,,,,,,,,,,,RegPatterns/02-ms_3_1_4_1_3_unit250.mp3,0,1,0,1,0,1,,,,,,,,,,,,,,,,,,
,,,,,,,,,,,,,train15_audtrain2,2023-11-22_22h12.25.298,AudTraining2,2021.2.3,Win32,144.1753172,,,,,,,,,,,,,,RegPatterns/02-ms_3_1_4_1_3_unit250.mp3,0,2,0,2,0,1,,,,,,,,,,,,,,,,,,
,,,,,,,,,,,,,train15_audtrain2,2023-11-22_22h12.25.298,AudTraining2,2021.2.3,Win32,144.1753172,,,,,,,,,,,,,,,,,,,,,3,3.4452,2,3,27,0,1,RegPatterns/02-ms_3_1_4_1_3_unit250.mp3,RegPatterns/02d-ms_3_1_4_3_1_unit250.mp3,,,,,,,,,
,,,,,,,,,,,,,train15_audtrain2,2023-11-22_22h12.25.298,AudTraining2,2021.2.3,Win32,144.1753172,,,,,,,,,,,,,,RegPatterns/18-ms_4_2_2_1_1_2_unit270.mp3,0,0,0,0,0,1,,,,,,,,,,,,,,,,,,
,,,,,,,,,,,,,train15_audtrain2,2023-11-22_22h12.25.298,AudTraining2,2021.2.3,Win32,144.1753172,,,,,,,,,,,,,,RegPatterns/18d-ms_4_2_2_2_1_1_unit270.mp3,2,1,0,1,0,1,,,,,,,,,,,,,,,,,,
,,,,,,,,,,,,,train15_audtrain2,2023-11-22_22h12.25.298,AudTraining2,2021.2.3,Win32,144.1753172,,,,,,,,,,,,,,RegPatterns/18-ms_4_2_2_1_1_2_unit270.mp3,0,2,0,2,0,1,,,,,,,,,,,,,,,,,,
,,,,,,,,,,,,,train15_audtrain2,2023-11-22_22h12.25.298,AudTraining2,2021.2.3,Win32,144.1753172,,,,,,,,,,,,,,,,,,,,,3,3.5986,2,4,28,6,1,RegPatterns/18-ms_4_2_2_1_1_2_unit270.mp3,RegPatterns/18d-ms_4_2_2_2_1_1_unit270.mp3,,,,,,,,,
,,,,,,,,,,,,,train15_audtrain2,2023-11-22_22h12.25.298,AudTraining2,2021.2.3,Win32,144.1753172,,,,,,,,,,,,,,RegPatterns/09-ms_2_1_1_1_3_4_unit270.mp3,0,0,0,0,0,1,,,,,,,,,,,,,,,,,,
,,,,,,,,,,,,,train15_audtrain2,2023-11-22_22h12.25.298,AudTraining2,2021.2.3,Win32,144.1753172,,,,,,,,,,,,,,RegPatterns/09-ms_2_1_1_1_3_4_unit270.mp3,0,1,0,1,0,1,,,,,,,,,,,,,,,,,,
,,,,,,,,,,,,,train15_audtrain2,2023-11-22_22h12.25.298,AudTraining2,2021.2.3,Win32,144.1753172,,,,,,,,,,,,,,RegPatterns/09d-ms_2_1_1_3_1_4_unit270.mp3,3,2,0,2,0,1,,,,,,,,,,,,,,,,,,
,,,,,,,,,,,,,train15_audtrain2,2023-11-22_22h12.25.298,AudTraining2,2021.2.3,Win32,144.1753172,,,,,,,,,,,,,,,,,,,,,3,0.6201,2,5,29,2,1,RegPatterns/09-ms_2_1_1_1_3_4_unit270.mp3,RegPatterns/09d-ms_2_1_1_3_1_4_unit270.mp3,,,,,,,,,
,,,,,,,,,,,,,train15_audtrain2,2023-11-22_22h12.25.298,AudTraining2,2021.2.3,Win32,144.1753172,,,,,,,,,,,,,,RegPatterns/19-ms_1_1_2_3_1_2_2_unit230.mp3,0,0,0,0,0,1,,,,,,,,,,,,,,,,,,
,,,,,,,,,,,,,train15_audtrain2,2023-11-22_22h12.25.298,AudTraining2,2021.2.3,Win32,144.1753172,,,,,,,,,,,,,,RegPatterns/19-ms_1_1_2_3_1_2_2_unit230.mp3,0,1,0,1,0,1,,,,,,,,,,,,,,,,,,
,,,,,,,,,,,,,train15_audtrain2,2023-11-22_22h12.25.298,AudTraining2,2021.2.3,Win32,144.1753172,,,,,,,,,,,,,,RegPatterns/19d-ms_1_1_2_1_3_2_2_unit230.mp3,3,2,0,2,0,1,,,,,,,,,,,,,,,,,,
,,,,,,,,,,,,,train15_audtrain2,2023-11-22_22h12.25.298,AudTraining2,2021.2.3,Win32,144.1753172,,,,,,,,,,,,,,,,,,,,,1,8.371,2,6,30,7,1,RegPatterns/19-ms_1_1_2_3_1_2_2_unit230.mp3,RegPatterns/19d-ms_1_1_2_1_3_2_2_unit230.mp3,,,,,,,,,
,,,,,,,,,,,,,train15_audtrain2,2023-11-22_22h12.25.298,AudTraining2,2021.2.3,Win32,144.1753172,,,,,,,,,,,,,,RegPatterns/16-ms_3_1_2_2_1_3_unit230.mp3,0,0,0,0,0,1,,,,,,,,,,,,,,,,,,
,,,,,,,,,,,,,train15_audtrain2,2023-11-22_22h12.25.298,AudTraining2,2021.2.3,Win32,144.1753172,,,,,,,,,,,,,,RegPatterns/16d-ms_3_1_2_2_3_1_unit230.mp3,2,1,0,1,0,1,,,,,,,,,,,,,,,,,,
,,,,,,,,,,,,,train15_audtrain2,2023-11-22_22h12.25.298,AudTraining2,2021.2.3,Win32,144.1753172,,,,,,,,,,,,,,RegPatterns/16-ms_3_1_2_2_1_3_unit230.mp3,0,2,0,2,0,1,,,,,,,,,,,,,,,,,,
,,,,,,,,,,,,,train15_audtrain2,2023-11-22_22h12.25.298,AudTraining2,2021.2.3,Win32,144.1753172,,,,,,,,,,,,,,,,,,,,,3,10.2785,2,7,31,5,1,RegPatterns/16-ms_3_1_2_2_1_3_unit230.mp3,RegPatterns/16d-ms_3_1_2_2_3_1_unit230.mp3,,,,,,,,,
,,,,,,,,,,,,,train15_audtrain2,2023-11-22_22h12.25.298,AudTraining2,2021.2.3,Win32,144.1753172,,,,,,,,,,,,,,RegPatterns/26d-ms_1_1_2_1_1_2_4_unit250.mp3,1,0,0,0,0,1,,,,,,,,,,,,,,,,,,
,,,,,,,,,,,,,train15_audtrain2,2023-11-22_22h12.25.298,AudTraining2,2021.2.3,Win32,144.1753172,,,,,,,,,,,,,,RegPatterns/26-ms_1_1_2_2_1_1_4_unit250.mp3,0,1,0,1,0,1,,,,,,,,,,,,,,,,,,
,,,,,,,,,,,,,train15_audtrain2,2023-11-22_22h12.25.298,AudTraining2,2021.2.3,Win32,144.1753172,,,,,,,,,,,,,,RegPatterns/26-ms_1_1_2_2_1_1_4_unit250.mp3,0,2,0,2,0,1,,,,,,,,,,,,,,,,,,
,,,,,,,,,,,,,train15_audtrain2,2023-11-22_22h12.25.298,AudTraining2,2021.2.3,Win32,144.1753172,,,,,,,,,,,,,,,,,,,,,1,0.1414,2,8,32,8,1,RegPatterns/26-ms_1_1_2_2_1_1_4_unit250.mp3,RegPatterns/26d-ms_1_1_2_1_1_2_4_unit250.mp3,,,,,,,,,
,,,,,,,,,,,,,train15_audtrain2,2023-11-22_22h12.25.298,AudTraining2,2021.2.3,Win32,144.1753172,,,,,,,,,,,,,,RegPatterns/30-ms_3_1_2_2_1_1_2_unit230.mp3,0,0,0,0,0,1,,,,,,,,,,,,,,,,,,
,,,,,,,,,,,,,train15_audtrain2,2023-11-22_22h12.25.298,AudTraining2,2021.2.3,Win32,144.1753172,,,,,,,,,,,,,,RegPatterns/30d-ms_1_3_2_2_1_1_2_unit230.mp3,2,1,0,1,0,1,,,,,,,,,,,,,,,,,,
,,,,,,,,,,,,,train15_audtrain2,2023-11-22_22h12.25.298,AudTraining2,2021.2.3,Win32,144.1753172,,,,,,,,,,,,,,RegPatterns/30-ms_3_1_2_2_1_1_2_unit230.mp3,0,2,0,2,0,1,,,,,,,,,,,,,,,,,,
,,,,,,,,,,,,,train15_audtrain2,2023-11-22_22h12.25.298,AudTraining2,2021.2.3,Win32,144.1753172,,,,,,,,,,,,,,,,,,,,,1,0.2658,2,9,33,10,1,RegPatterns/30-ms_3_1_2_2_1_1_2_unit230.mp3,RegPatterns/30d-ms_1_3_2_2_1_1_2_unit230.mp3,,,,,,,,,
,,,,,,,,,,,,,train15_audtrain2,2023-11-22_22h12.25.298,AudTraining2,2021.2.3,Win32,144.1753172,,,,,,,,,,,,,,RegPatterns/03d-ms_1_3_4_2_2_unit270.mp3,1,0,0,0,0,1,,,,,,,,,,,,,,,,,,
,,,,,,,,,,,,,train15_audtrain2,2023-11-22_22h12.25.298,AudTraining2,2021.2.3,Win32,144.1753172,,,,,,,,,,,,,,RegPatterns/03-ms_3_1_4_2_2_unit270.mp3,0,1,0,1,0,1,,,,,,,,,,,,,,,,,,
,,,,,,,,,,,,,train15_audtrain2,2023-11-22_22h12.25.298,AudTraining2,2021.2.3,Win32,144.1753172,,,,,,,,,,,,,,RegPatterns/03-ms_3_1_4_2_2_unit270.mp3,0,2,0,2,0,1,,,,,,,,,,,,,,,,,,
,,,,,,,,,,,,,train15_audtrain2,2023-11-22_22h12.25.298,AudTraining2,2021.2.3,Win32,144.1753172,,,,,,,,,,,,,,,,,,,,,1,0.5429,2,10,34,1,1,RegPatterns/03-ms_3_1_4_2_2_unit270.mp3,RegPatterns/03d-ms_1_3_4_2_2_unit270.mp3,,,,,,,,,
,,,,,,,,,,,,,train15_audtrain2,2023-11-22_22h12.25.298,AudTraining2,2021.2.3,Win32,144.1753172,,,,,,,,,,,,,,RegPatterns/14-ms_2_1_1_4_1_3_unit250.mp3,0,0,0,0,0,1,,,,,,,,,,,,,,,,,,
,,,,,,,,,,,,,train15_audtrain2,2023-11-22_22h12.25.298,AudTraining2,2021.2.3,Win32,144.1753172,,,,,,,,,,,,,,RegPatterns/14-ms_2_1_1_4_1_3_unit250.mp3,0,1,0,1,0,1,,,,,,,,,,,,,,,,,,
,,,,,,,,,,,,,train15_audtrain2,2023-11-22_22h12.25.298,AudTraining2,2021.2.3,Win32,144.1753172,,,,,,,,,,,,,,RegPatterns/14d-ms_2_1_1_4_3_1_unit250.mp3,3,2,0,2,0,1,,,,,,,,,,,,,,,,,,
,,,,,,,,,,,,,train15_audtrain2,2023-11-22_22h12.25.298,AudTraining2,2021.2.3,Win32,144.1753172,,,,,,,,,,,,,,,,,,,,,1,0.787,2,11,35,4,1,RegPatterns/14-ms_2_1_1_4_1_3_unit250.mp3,RegPatterns/14d-ms_2_1_1_4_3_1_unit250.mp3,,,,,,,,,
,,,,,,,,,,,,,train15_audtrain2,2023-11-22_22h12.25.298,AudTraining2,2021.2.3,Win32,144.1753172,,,,,,,,,,,,,,,,,,,,,,,,,,,,,,,,,,,,,space,1.4987
