key_resp.keys,key_resp.rt,key_resp_2.keys,key_resp_2.rt,key_resp_3.keys,key_resp_3.rt,trials.thisRepN,trials.thisTrialN,trials.thisN,trials.thisIndex,trials.ran,volstandard,voldeviant,participant,date,expName,psychopyVersion,OS,frameRate,key_resp_4.keys,key_resp_4.rt,key_resp_5.keys,key_resp_5.rt,trials_2.thisRepN,trials_2.thisTrialN,trials_2.thisN,trials_2.thisIndex,trials_2.ran,RegStandardPitch,RegDeviantPitch,key_resp_6.keys,key_resp_6.rt,RegAudSequence,diff-reg,trials_3.thisRepN,trials_3.thisTrialN,trials_3.thisN,trials_3.thisIndex,trials_3.ran,key_resp_7.keys,key_resp_7.rt,trials_5.thisRepN,trials_5.thisTrialN,trials_5.thisN,trials_5.thisIndex,trials_5.ran,standard,devient,key_resp_8.keys,key_resp_8.rt,trials_4.thisRepN,trials_4.thisTrialN,trials_4.thisN,trials_4.thisIndex,trials_4.ran,key_resp_9.keys,key_resp_9.rt
space,3.6621,space,2491.534,space,1.5066,0,0,0,0,1,RegPatterns/01-ms_2_2_4_1_3_unit230.mp3,RegPatterns/01d-ms_2_2_4_3_1_unit230.mp3,train15_audtrain2,2023-11-18_18h56.59.632,AudTraining2,2021.2.3,Win32,144.0714594,,,,,,,,,,,,,,,,,,,,,,,,,,,,,,,,,,,,,,
,,,,,,,,,,,,,train15_audtrain2,2023-11-18_18h56.59.632,AudTraining2,2021.2.3,Win32,144.0714594,space,0.7834,g,1.9699,0,0,0,0,1,RegPatterns/Noise.mp3,RegPatterns/Noise.mp3,,,,,,,,,,,,,,,,,,,,,,,,,,,
,,,,,,,,,,,,,train15_audtrain2,2023-11-18_18h56.59.632,AudTraining2,2021.2.3,Win32,144.0714594,,,,,,,,,,,,space,0.6824,RegPatterns/12-ms_3_1_1_3_2_2_unit270.mp3,0,0,0,0,0,1,,,,,,,,,,,,,,,,,,
,,,,,,,,,,,,,train15_audtrain2,2023-11-18_18h56.59.632,AudTraining2,2021.2.3,Win32,144.0714594,,,,,,,,,,,,,,RegPatterns/12d-ms_3_1_3_1_2_2_unit270.mp3,2,1,0,1,0,1,,,,,,,,,,,,,,,,,,
,,,,,,,,,,,,,train15_audtrain2,2023-11-18_18h56.59.632,AudTraining2,2021.2.3,Win32,144.0714594,,,,,,,,,,,,,,RegPatterns/12-ms_3_1_1_3_2_2_unit270.mp3,0,2,0,2,0,1,,,,,,,,,,,,,,,,,,
,,,,,,,,,,,,,train15_audtrain2,2023-11-18_18h56.59.632,AudTraining2,2021.2.3,Win32,144.0714594,,,,,,,,,,,,,,,,,,,,,3,0.6348,0,0,0,3,1,RegPatterns/12-ms_3_1_1_3_2_2_unit270.mp3,RegPatterns/12d-ms_3_1_3_1_2_2_unit270.mp3,,,,,,,,,
,,,,,,,,,,,,,train15_audtrain2,2023-11-18_18h56.59.632,AudTraining2,2021.2.3,Win32,144.0714594,,,,,,,,,,,,,,RegPatterns/26-ms_1_1_2_2_1_1_4_unit250.mp3,0,0,0,0,0,1,,,,,,,,,,,,,,,,,,
,,,,,,,,,,,,,train15_audtrain2,2023-11-18_18h56.59.632,AudTraining2,2021.2.3,Win32,144.0714594,,,,,,,,,,,,,,RegPatterns/26-ms_1_1_2_2_1_1_4_unit250.mp3,0,1,0,1,0,1,,,,,,,,,,,,,,,,,,
,,,,,,,,,,,,,train15_audtrain2,2023-11-18_18h56.59.632,AudTraining2,2021.2.3,Win32,144.0714594,,,,,,,,,,,,,,RegPatterns/26d-ms_1_1_2_1_1_2_4_unit250.mp3,3,2,0,2,0,1,,,,,,,,,,,,,,,,,,
,,,,,,,,,,,,,train15_audtrain2,2023-11-18_18h56.59.632,AudTraining2,2021.2.3,Win32,144.0714594,,,,,,,,,,,,,,,,,,,,,3,0.452,0,1,1,8,1,RegPatterns/26-ms_1_1_2_2_1_1_4_unit250.mp3,RegPatterns/26d-ms_1_1_2_1_1_2_4_unit250.mp3,,,,,,,,,
,,,,,,,,,,,,,train15_audtrain2,2023-11-18_18h56.59.632,AudTraining2,2021.2.3,Win32,144.0714594,,,,,,,,,,,,,,RegPatterns/09-ms_2_1_1_1_3_4_unit270.mp3,0,0,0,0,0,1,,,,,,,,,,,,,,,,,,
,,,,,,,,,,,,,train15_audtrain2,2023-11-18_18h56.59.632,AudTraining2,2021.2.3,Win32,144.0714594,,,,,,,,,,,,,,RegPatterns/09-ms_2_1_1_1_3_4_unit270.mp3,0,1,0,1,0,1,,,,,,,,,,,,,,,,,,
,,,,,,,,,,,,,train15_audtrain2,2023-11-18_18h56.59.632,AudTraining2,2021.2.3,Win32,144.0714594,,,,,,,,,,,,,,RegPatterns/09d-ms_2_1_1_3_1_4_unit270.mp3,3,2,0,2,0,1,,,,,,,,,,,,,,,,,,
,,,,,,,,,,,,,train15_audtrain2,2023-11-18_18h56.59.632,AudTraining2,2021.2.3,Win32,144.0714594,,,,,,,,,,,,,,,,,,,,,3,0.2315,0,2,2,2,1,RegPatterns/09-ms_2_1_1_1_3_4_unit270.mp3,RegPatterns/09d-ms_2_1_1_3_1_4_unit270.mp3,,,,,,,,,
,,,,,,,,,,,,,train15_audtrain2,2023-11-18_18h56.59.632,AudTraining2,2021.2.3,Win32,144.0714594,,,,,,,,,,,,,,RegPatterns/29-ms_3_1_2_1_1_1_3_unit250.mp3,0,0,0,0,0,1,,,,,,,,,,,,,,,,,,
,,,,,,,,,,,,,train15_audtrain2,2023-11-18_18h56.59.632,AudTraining2,2021.2.3,Win32,144.0714594,,,,,,,,,,,,,,RegPatterns/29d-ms_3_1_2_1_1_3_1_unit250.mp3,2,1,0,1,0,1,,,,,,,,,,,,,,,,,,
,,,,,,,,,,,,,train15_audtrain2,2023-11-18_18h56.59.632,AudTraining2,2021.2.3,Win32,144.0714594,,,,,,,,,,,,,,RegPatterns/29-ms_3_1_2_1_1_1_3_unit250.mp3,0,2,0,2,0,1,,,,,,,,,,,,,,,,,,
,,,,,,,,,,,,,train15_audtrain2,2023-11-18_18h56.59.632,AudTraining2,2021.2.3,Win32,144.0714594,,,,,,,,,,,,,,,,,,,,,3,1.2526,0,3,3,9,1,RegPatterns/29-ms_3_1_2_1_1_1_3_unit250.mp3,RegPatterns/29d-ms_3_1_2_1_1_3_1_unit250.mp3,,,,,,,,,
,,,,,,,,,,,,,train15_audtrain2,2023-11-18_18h56.59.632,AudTraining2,2021.2.3,Win32,144.0714594,,,,,,,,,,,,,,RegPatterns/19-ms_1_1_2_3_1_2_2_unit230.mp3,0,0,0,0,0,1,,,,,,,,,,,,,,,,,,
,,,,,,,,,,,,,train15_audtrain2,2023-11-18_18h56.59.632,AudTraining2,2021.2.3,Win32,144.0714594,,,,,,,,,,,,,,RegPatterns/19d-ms_1_1_2_1_3_2_2_unit230.mp3,2,1,0,1,0,1,,,,,,,,,,,,,,,,,,
,,,,,,,,,,,,,train15_audtrain2,2023-11-18_18h56.59.632,AudTraining2,2021.2.3,Win32,144.0714594,,,,,,,,,,,,,,RegPatterns/19-ms_1_1_2_3_1_2_2_unit230.mp3,0,2,0,2,0,1,,,,,,,,,,,,,,,,,,
,,,,,,,,,,,,,train15_audtrain2,2023-11-18_18h56.59.632,AudTraining2,2021.2.3,Win32,144.0714594,,,,,,,,,,,,,,,,,,,,,3,0.6414,0,4,4,7,1,RegPatterns/19-ms_1_1_2_3_1_2_2_unit230.mp3,RegPatterns/19d-ms_1_1_2_1_3_2_2_unit230.mp3,,,,,,,,,
,,,,,,,,,,,,,train15_audtrain2,2023-11-18_18h56.59.632,AudTraining2,2021.2.3,Win32,144.0714594,,,,,,,,,,,,,,RegPatterns/03d-ms_1_3_4_2_2_unit270.mp3,1,0,0,0,0,1,,,,,,,,,,,,,,,,,,
,,,,,,,,,,,,,train15_audtrain2,2023-11-18_18h56.59.632,AudTraining2,2021.2.3,Win32,144.0714594,,,,,,,,,,,,,,RegPatterns/03-ms_3_1_4_2_2_unit270.mp3,0,1,0,1,0,1,,,,,,,,,,,,,,,,,,
,,,,,,,,,,,,,train15_audtrain2,2023-11-18_18h56.59.632,AudTraining2,2021.2.3,Win32,144.0714594,,,,,,,,,,,,,,RegPatterns/03-ms_3_1_4_2_2_unit270.mp3,0,2,0,2,0,1,,,,,,,,,,,,,,,,,,
,,,,,,,,,,,,,train15_audtrain2,2023-11-18_18h56.59.632,AudTraining2,2021.2.3,Win32,144.0714594,,,,,,,,,,,,,,,,,,,,,1,0.3699,0,5,5,1,1,RegPatterns/03-ms_3_1_4_2_2_unit270.mp3,RegPatterns/03d-ms_1_3_4_2_2_unit270.mp3,,,,,,,,,
,,,,,,,,,,,,,train15_audtrain2,2023-11-18_18h56.59.632,AudTraining2,2021.2.3,Win32,144.0714594,,,,,,,,,,,,,,RegPatterns/30-ms_3_1_2_2_1_1_2_unit230.mp3,0,0,0,0,0,1,,,,,,,,,,,,,,,,,,
,,,,,,,,,,,,,train15_audtrain2,2023-11-18_18h56.59.632,AudTraining2,2021.2.3,Win32,144.0714594,,,,,,,,,,,,,,RegPatterns/30d-ms_1_3_2_2_1_1_2_unit230.mp3,2,1,0,1,0,1,,,,,,,,,,,,,,,,,,
,,,,,,,,,,,,,train15_audtrain2,2023-11-18_18h56.59.632,AudTraining2,2021.2.3,Win32,144.0714594,,,,,,,,,,,,,,RegPatterns/30-ms_3_1_2_2_1_1_2_unit230.mp3,0,2,0,2,0,1,,,,,,,,,,,,,,,,,,
,,,,,,,,,,,,,train15_audtrain2,2023-11-18_18h56.59.632,AudTraining2,2021.2.3,Win32,144.0714594,,,,,,,,,,,,,,,,,,,,,2,0.2452,0,6,6,10,1,RegPatterns/30-ms_3_1_2_2_1_1_2_unit230.mp3,RegPatterns/30d-ms_1_3_2_2_1_1_2_unit230.mp3,,,,,,,,,
,,,,,,,,,,,,,train15_audtrain2,2023-11-18_18h56.59.632,AudTraining2,2021.2.3,Win32,144.0714594,,,,,,,,,,,,,,RegPatterns/16-ms_3_1_2_2_1_3_unit230.mp3,0,0,0,0,0,1,,,,,,,,,,,,,,,,,,
,,,,,,,,,,,,,train15_audtrain2,2023-11-18_18h56.59.632,AudTraining2,2021.2.3,Win32,144.0714594,,,,,,,,,,,,,,RegPatterns/16d-ms_3_1_2_2_3_1_unit230.mp3,2,1,0,1,0,1,,,,,,,,,,,,,,,,,,
,,,,,,,,,,,,,train15_audtrain2,2023-11-18_18h56.59.632,AudTraining2,2021.2.3,Win32,144.0714594,,,,,,,,,,,,,,RegPatterns/16-ms_3_1_2_2_1_3_unit230.mp3,0,2,0,2,0,1,,,,,,,,,,,,,,,,,,
,,,,,,,,,,,,,train15_audtrain2,2023-11-18_18h56.59.632,AudTraining2,2021.2.3,Win32,144.0714594,,,,,,,,,,,,,,,,,,,,,2,0.133,0,7,7,5,1,RegPatterns/16-ms_3_1_2_2_1_3_unit230.mp3,RegPatterns/16d-ms_3_1_2_2_3_1_unit230.mp3,,,,,,,,,
,,,,,,,,,,,,,train15_audtrain2,2023-11-18_18h56.59.632,AudTraining2,2021.2.3,Win32,144.0714594,,,,,,,,,,,,,,RegPatterns/20d-ms_2_1_1_2_2_1_3_unit230.mp3,1,0,0,0,0,1,,,,,,,,,,,,,,,,,,
,,,,,,,,,,,,,train15_audtrain2,2023-11-18_18h56.59.632,AudTraining2,2021.2.3,Win32,144.0714594,,,,,,,,,,,,,,RegPatterns/20-ms_2_1_1_2_2_3_1_unit230.mp3,0,1,0,1,0,1,,,,,,,,,,,,,,,,,,
,,,,,,,,,,,,,train15_audtrain2,2023-11-18_18h56.59.632,AudTraining2,2021.2.3,Win32,144.0714594,,,,,,,,,,,,,,RegPatterns/20-ms_2_1_1_2_2_3_1_unit230.mp3,0,2,0,2,0,1,,,,,,,,,,,,,,,,,,
,,,,,,,,,,,,,train15_audtrain2,2023-11-18_18h56.59.632,AudTraining2,2021.2.3,Win32,144.0714594,,,,,,,,,,,,,,,,,,,,,2,0.1901,0,8,8,11,1,RegPatterns/20-ms_2_1_1_2_2_3_1_unit230.mp3,RegPatterns/20d-ms_2_1_1_2_2_1_3_unit230.mp3,,,,,,,,,
,,,,,,,,,,,,,train15_audtrain2,2023-11-18_18h56.59.632,AudTraining2,2021.2.3,Win32,144.0714594,,,,,,,,,,,,,,RegPatterns/14-ms_2_1_1_4_1_3_unit250.mp3,0,0,0,0,0,1,,,,,,,,,,,,,,,,,,
,,,,,,,,,,,,,train15_audtrain2,2023-11-18_18h56.59.632,AudTraining2,2021.2.3,Win32,144.0714594,,,,,,,,,,,,,,RegPatterns/14d-ms_2_1_1_4_3_1_unit250.mp3,2,1,0,1,0,1,,,,,,,,,,,,,,,,,,
,,,,,,,,,,,,,train15_audtrain2,2023-11-18_18h56.59.632,AudTraining2,2021.2.3,Win32,144.0714594,,,,,,,,,,,,,,RegPatterns/14-ms_2_1_1_4_1_3_unit250.mp3,0,2,0,2,0,1,,,,,,,,,,,,,,,,,,
,,,,,,,,,,,,,train15_audtrain2,2023-11-18_18h56.59.632,AudTraining2,2021.2.3,Win32,144.0714594,,,,,,,,,,,,,,,,,,,,,1,0.2964,0,9,9,4,1,RegPatterns/14-ms_2_1_1_4_1_3_unit250.mp3,RegPatterns/14d-ms_2_1_1_4_3_1_unit250.mp3,,,,,,,,,
,,,,,,,,,,,,,train15_audtrain2,2023-11-18_18h56.59.632,AudTraining2,2021.2.3,Win32,144.0714594,,,,,,,,,,,,,,RegPatterns/18d-ms_4_2_2_2_1_1_unit270.mp3,1,0,0,0,0,1,,,,,,,,,,,,,,,,,,
,,,,,,,,,,,,,train15_audtrain2,2023-11-18_18h56.59.632,AudTraining2,2021.2.3,Win32,144.0714594,,,,,,,,,,,,,,RegPatterns/18-ms_4_2_2_1_1_2_unit270.mp3,0,1,0,1,0,1,,,,,,,,,,,,,,,,,,
,,,,,,,,,,,,,train15_audtrain2,2023-11-18_18h56.59.632,AudTraining2,2021.2.3,Win32,144.0714594,,,,,,,,,,,,,,RegPatterns/18-ms_4_2_2_1_1_2_unit270.mp3,0,2,0,2,0,1,,,,,,,,,,,,,,,,,,
,,,,,,,,,,,,,train15_audtrain2,2023-11-18_18h56.59.632,AudTraining2,2021.2.3,Win32,144.0714594,,,,,,,,,,,,,,,,,,,,,1,0.1429,0,10,10,6,1,RegPatterns/18-ms_4_2_2_1_1_2_unit270.mp3,RegPatterns/18d-ms_4_2_2_2_1_1_unit270.mp3,,,,,,,,,
,,,,,,,,,,,,,train15_audtrain2,2023-11-18_18h56.59.632,AudTraining2,2021.2.3,Win32,144.0714594,,,,,,,,,,,,,,RegPatterns/02-ms_3_1_4_1_3_unit250.mp3,0,0,0,0,0,1,,,,,,,,,,,,,,,,,,
,,,,,,,,,,,,,train15_audtrain2,2023-11-18_18h56.59.632,AudTraining2,2021.2.3,Win32,144.0714594,,,,,,,,,,,,,,RegPatterns/02-ms_3_1_4_1_3_unit250.mp3,0,1,0,1,0,1,,,,,,,,,,,,,,,,,,
,,,,,,,,,,,,,train15_audtrain2,2023-11-18_18h56.59.632,AudTraining2,2021.2.3,Win32,144.0714594,,,,,,,,,,,,,,RegPatterns/02d-ms_3_1_4_3_1_unit250.mp3,3,2,0,2,0,1,,,,,,,,,,,,,,,,,,
,,,,,,,,,,,,,train15_audtrain2,2023-11-18_18h56.59.632,AudTraining2,2021.2.3,Win32,144.0714594,,,,,,,,,,,,,,,,,,,,,1,0.871,0,11,11,0,1,RegPatterns/02-ms_3_1_4_1_3_unit250.mp3,RegPatterns/02d-ms_3_1_4_3_1_unit250.mp3,,,,,,,,,
,,,,,,,,,,,,,train15_audtrain2,2023-11-18_18h56.59.632,AudTraining2,2021.2.3,Win32,144.0714594,,,,,,,,,,,,,,RegPatterns/18-ms_4_2_2_1_1_2_unit270.mp3,0,0,0,0,0,1,,,,,,,,,,,,,,,,,,
,,,,,,,,,,,,,train15_audtrain2,2023-11-18_18h56.59.632,AudTraining2,2021.2.3,Win32,144.0714594,,,,,,,,,,,,,,RegPatterns/18-ms_4_2_2_1_1_2_unit270.mp3,0,1,0,1,0,1,,,,,,,,,,,,,,,,,,
,,,,,,,,,,,,,train15_audtrain2,2023-11-18_18h56.59.632,AudTraining2,2021.2.3,Win32,144.0714594,,,,,,,,,,,,,,RegPatterns/18d-ms_4_2_2_2_1_1_unit270.mp3,3,2,0,2,0,1,,,,,,,,,,,,,,,,,,
,,,,,,,,,,,,,train15_audtrain2,2023-11-18_18h56.59.632,AudTraining2,2021.2.3,Win32,144.0714594,,,,,,,,,,RegPatterns/Noise.mp3,RegPatterns/Noise.mp3,,,,,,,,,,3,0.2866,,,,,,,,g,7.3963,0,0,0,0,1,,
,,,,,,,,,,,,,train15_audtrain2,2023-11-18_18h56.59.632,AudTraining2,2021.2.3,Win32,144.0714594,,,,,,,,,,,,,,,,,,,,,,,1,0,12,6,1,RegPatterns/18-ms_4_2_2_1_1_2_unit270.mp3,RegPatterns/18d-ms_4_2_2_2_1_1_unit270.mp3,,,,,,,,,
,,,,,,,,,,,,,train15_audtrain2,2023-11-18_18h56.59.632,AudTraining2,2021.2.3,Win32,144.0714594,,,,,,,,,,,,,,RegPatterns/14d-ms_2_1_1_4_3_1_unit250.mp3,1,0,0,0,0,1,,,,,,,,,,,,,,,,,,
,,,,,,,,,,,,,train15_audtrain2,2023-11-18_18h56.59.632,AudTraining2,2021.2.3,Win32,144.0714594,,,,,,,,,,,,,,RegPatterns/14-ms_2_1_1_4_1_3_unit250.mp3,0,1,0,1,0,1,,,,,,,,,,,,,,,,,,
,,,,,,,,,,,,,train15_audtrain2,2023-11-18_18h56.59.632,AudTraining2,2021.2.3,Win32,144.0714594,,,,,,,,,,,,,,RegPatterns/14-ms_2_1_1_4_1_3_unit250.mp3,0,2,0,2,0,1,,,,,,,,,,,,,,,,,,
,,,,,,,,,,,,,train15_audtrain2,2023-11-18_18h56.59.632,AudTraining2,2021.2.3,Win32,144.0714594,,,,,,,,,,,,,,,,,,,,,1,0.2423,1,1,13,4,1,RegPatterns/14-ms_2_1_1_4_1_3_unit250.mp3,RegPatterns/14d-ms_2_1_1_4_3_1_unit250.mp3,,,,,,,,,
,,,,,,,,,,,,,train15_audtrain2,2023-11-18_18h56.59.632,AudTraining2,2021.2.3,Win32,144.0714594,,,,,,,,,,,,,,RegPatterns/12-ms_3_1_1_3_2_2_unit270.mp3,0,0,0,0,0,1,,,,,,,,,,,,,,,,,,
,,,,,,,,,,,,,train15_audtrain2,2023-11-18_18h56.59.632,AudTraining2,2021.2.3,Win32,144.0714594,,,,,,,,,,,,,,RegPatterns/12-ms_3_1_1_3_2_2_unit270.mp3,0,1,0,1,0,1,,,,,,,,,,,,,,,,,,
,,,,,,,,,,,,,train15_audtrain2,2023-11-18_18h56.59.632,AudTraining2,2021.2.3,Win32,144.0714594,,,,,,,,,,,,,,RegPatterns/12d-ms_3_1_3_1_2_2_unit270.mp3,3,2,0,2,0,1,,,,,,,,,,,,,,,,,,
,,,,,,,,,,,,,train15_audtrain2,2023-11-18_18h56.59.632,AudTraining2,2021.2.3,Win32,144.0714594,,,,,,,,,,,,,,,,,,,,,3,0.2182,1,2,14,3,1,RegPatterns/12-ms_3_1_1_3_2_2_unit270.mp3,RegPatterns/12d-ms_3_1_3_1_2_2_unit270.mp3,,,,,,,,,
,,,,,,,,,,,,,train15_audtrain2,2023-11-18_18h56.59.632,AudTraining2,2021.2.3,Win32,144.0714594,,,,,,,,,,,,,,RegPatterns/29d-ms_3_1_2_1_1_3_1_unit250.mp3,1,0,0,0,0,1,,,,,,,,,,,,,,,,,,
,,,,,,,,,,,,,train15_audtrain2,2023-11-18_18h56.59.632,AudTraining2,2021.2.3,Win32,144.0714594,,,,,,,,,,,,,,RegPatterns/29-ms_3_1_2_1_1_1_3_unit250.mp3,0,1,0,1,0,1,,,,,,,,,,,,,,,,,,
,,,,,,,,,,,,,train15_audtrain2,2023-11-18_18h56.59.632,AudTraining2,2021.2.3,Win32,144.0714594,,,,,,,,,,,,,,RegPatterns/29-ms_3_1_2_1_1_1_3_unit250.mp3,0,2,0,2,0,1,,,,,,,,,,,,,,,,,,
,,,,,,,,,,,,,train15_audtrain2,2023-11-18_18h56.59.632,AudTraining2,2021.2.3,Win32,144.0714594,,,,,,,,,,,,,,,,,,,,,3,1106.4229,1,3,15,9,1,RegPatterns/29-ms_3_1_2_1_1_1_3_unit250.mp3,RegPatterns/29d-ms_3_1_2_1_1_3_1_unit250.mp3,,,,,,,,,
,,,,,,,,,,,,,train15_audtrain2,2023-11-18_18h56.59.632,AudTraining2,2021.2.3,Win32,144.0714594,,,,,,,,,,,,,,RegPatterns/02d-ms_3_1_4_3_1_unit250.mp3,1,0,0,0,0,1,,,,,,,,,,,,,,,,,,
,,,,,,,,,,,,,train15_audtrain2,2023-11-18_18h56.59.632,AudTraining2,2021.2.3,Win32,144.0714594,,,,,,,,,,,,,,RegPatterns/02-ms_3_1_4_1_3_unit250.mp3,0,1,0,1,0,1,,,,,,,,,,,,,,,,,,
,,,,,,,,,,,,,train15_audtrain2,2023-11-18_18h56.59.632,AudTraining2,2021.2.3,Win32,144.0714594,,,,,,,,,,,,,,RegPatterns/02-ms_3_1_4_1_3_unit250.mp3,0,2,0,2,0,1,,,,,,,,,,,,,,,,,,
,,,,,,,,,,,,,train15_audtrain2,2023-11-18_18h56.59.632,AudTraining2,2021.2.3,Win32,144.0714594,,,,,,,,,,,,,,,,,,,,,1,0.6607,1,4,16,0,1,RegPatterns/02-ms_3_1_4_1_3_unit250.mp3,RegPatterns/02d-ms_3_1_4_3_1_unit250.mp3,,,,,,,,,
,,,,,,,,,,,,,train15_audtrain2,2023-11-18_18h56.59.632,AudTraining2,2021.2.3,Win32,144.0714594,,,,,,,,,,,,,,RegPatterns/20-ms_2_1_1_2_2_3_1_unit230.mp3,0,0,0,0,0,1,,,,,,,,,,,,,,,,,,
,,,,,,,,,,,,,train15_audtrain2,2023-11-18_18h56.59.632,AudTraining2,2021.2.3,Win32,144.0714594,,,,,,,,,,,,,,RegPatterns/20d-ms_2_1_1_2_2_1_3_unit230.mp3,2,1,0,1,0,1,,,,,,,,,,,,,,,,,,
,,,,,,,,,,,,,train15_audtrain2,2023-11-18_18h56.59.632,AudTraining2,2021.2.3,Win32,144.0714594,,,,,,,,,,,,,,RegPatterns/20-ms_2_1_1_2_2_3_1_unit230.mp3,0,2,0,2,0,1,,,,,,,,,,,,,,,,,,
,,,,,,,,,,,,,train15_audtrain2,2023-11-18_18h56.59.632,AudTraining2,2021.2.3,Win32,144.0714594,,,,,,,,,,,,,,,,,,,,,1,2141.7351,1,5,17,11,1,RegPatterns/20-ms_2_1_1_2_2_3_1_unit230.mp3,RegPatterns/20d-ms_2_1_1_2_2_1_3_unit230.mp3,,,,,,,,,
,,,,,,,,,,,,,train15_audtrain2,2023-11-18_18h56.59.632,AudTraining2,2021.2.3,Win32,144.0714594,,,,,,,,,,,,,,RegPatterns/16-ms_3_1_2_2_1_3_unit230.mp3,0,0,0,0,0,1,,,,,,,,,,,,,,,,,,
,,,,,,,,,,,,,train15_audtrain2,2023-11-18_18h56.59.632,AudTraining2,2021.2.3,Win32,144.0714594,,,,,,,,,,,,,,RegPatterns/16-ms_3_1_2_2_1_3_unit230.mp3,0,1,0,1,0,1,,,,,,,,,,,,,,,,,,
,,,,,,,,,,,,,train15_audtrain2,2023-11-18_18h56.59.632,AudTraining2,2021.2.3,Win32,144.0714594,,,,,,,,,,,,,,RegPatterns/16d-ms_3_1_2_2_3_1_unit230.mp3,3,2,0,2,0,1,,,,,,,,,,,,,,,,,,
,,,,,,,,,,,,,train15_audtrain2,2023-11-18_18h56.59.632,AudTraining2,2021.2.3,Win32,144.0714594,,,,,,,,,,,,,,,,,,,,,3,2.1836,1,6,18,5,1,RegPatterns/16-ms_3_1_2_2_1_3_unit230.mp3,RegPatterns/16d-ms_3_1_2_2_3_1_unit230.mp3,,,,,,,,,
,,,,,,,,,,,,,train15_audtrain2,2023-11-18_18h56.59.632,AudTraining2,2021.2.3,Win32,144.0714594,,,,,,,,,,,,,,RegPatterns/30-ms_3_1_2_2_1_1_2_unit230.mp3,0,0,0,0,0,1,,,,,,,,,,,,,,,,,,
,,,,,,,,,,,,,train15_audtrain2,2023-11-18_18h56.59.632,AudTraining2,2021.2.3,Win32,144.0714594,,,,,,,,,,,,,,RegPatterns/30-ms_3_1_2_2_1_1_2_unit230.mp3,0,1,0,1,0,1,,,,,,,,,,,,,,,,,,
,,,,,,,,,,,,,train15_audtrain2,2023-11-18_18h56.59.632,AudTraining2,2021.2.3,Win32,144.0714594,,,,,,,,,,,,,,RegPatterns/30d-ms_1_3_2_2_1_1_2_unit230.mp3,3,2,0,2,0,1,,,,,,,,,,,,,,,,,,
,,,,,,,,,,,,,train15_audtrain2,2023-11-18_18h56.59.632,AudTraining2,2021.2.3,Win32,144.0714594,,,,,,,,,,,,,,,,,,,,,3,2540.9238,1,7,19,10,1,RegPatterns/30-ms_3_1_2_2_1_1_2_unit230.mp3,RegPatterns/30d-ms_1_3_2_2_1_1_2_unit230.mp3,,,,,,,,,
,,,,,,,,,,,,,train15_audtrain2,2023-11-18_18h56.59.632,AudTraining2,2021.2.3,Win32,144.0714594,,,,,,,,,,,,,,RegPatterns/26d-ms_1_1_2_1_1_2_4_unit250.mp3,1,0,0,0,0,1,,,,,,,,,,,,,,,,,,
,,,,,,,,,,,,,train15_audtrain2,2023-11-18_18h56.59.632,AudTraining2,2021.2.3,Win32,144.0714594,,,,,,,,,,,,,,RegPatterns/26-ms_1_1_2_2_1_1_4_unit250.mp3,0,1,0,1,0,1,,,,,,,,,,,,,,,,,,
,,,,,,,,,,,,,train15_audtrain2,2023-11-18_18h56.59.632,AudTraining2,2021.2.3,Win32,144.0714594,,,,,,,,,,,,,,RegPatterns/26-ms_1_1_2_2_1_1_4_unit250.mp3,0,2,0,2,0,1,,,,,,,,,,,,,,,,,,
,,,,,,,,,,,,,train15_audtrain2,2023-11-18_18h56.59.632,AudTraining2,2021.2.3,Win32,144.0714594,,,,,,,,,,,,,,,,,,,,,3,16.0504,1,8,20,8,1,RegPatterns/26-ms_1_1_2_2_1_1_4_unit250.mp3,RegPatterns/26d-ms_1_1_2_1_1_2_4_unit250.mp3,,,,,,,,,
,,,,,,,,,,,,,train15_audtrain2,2023-11-18_18h56.59.632,AudTraining2,2021.2.3,Win32,144.0714594,,,,,,,,,,,,,,RegPatterns/09d-ms_2_1_1_3_1_4_unit270.mp3,1,0,0,0,0,1,,,,,,,,,,,,,,,,,,
,,,,,,,,,,,,,train15_audtrain2,2023-11-18_18h56.59.632,AudTraining2,2021.2.3,Win32,144.0714594,,,,,,,,,,,,,,RegPatterns/09-ms_2_1_1_1_3_4_unit270.mp3,0,1,0,1,0,1,,,,,,,,,,,,,,,,,,
,,,,,,,,,,,,,train15_audtrain2,2023-11-18_18h56.59.632,AudTraining2,2021.2.3,Win32,144.0714594,,,,,,,,,,,,,,RegPatterns/09-ms_2_1_1_1_3_4_unit270.mp3,0,2,0,2,0,1,,,,,,,,,,,,,,,,,,
,,,,,,,,,,,,,train15_audtrain2,2023-11-18_18h56.59.632,AudTraining2,2021.2.3,Win32,144.0714594,,,,,,,,,,,,,,,,,,,,,2,3.6908,1,9,21,2,1,RegPatterns/09-ms_2_1_1_1_3_4_unit270.mp3,RegPatterns/09d-ms_2_1_1_3_1_4_unit270.mp3,,,,,,,,,
,,,,,,,,,,,,,train15_audtrain2,2023-11-18_18h56.59.632,AudTraining2,2021.2.3,Win32,144.0714594,,,,,,,,,,,,,,RegPatterns/03-ms_3_1_4_2_2_unit270.mp3,0,0,0,0,0,1,,,,,,,,,,,,,,,,,,
,,,,,,,,,,,,,train15_audtrain2,2023-11-18_18h56.59.632,AudTraining2,2021.2.3,Win32,144.0714594,,,,,,,,,,,,,,RegPatterns/03-ms_3_1_4_2_2_unit270.mp3,0,1,0,1,0,1,,,,,,,,,,,,,,,,,,
,,,,,,,,,,,,,train15_audtrain2,2023-11-18_18h56.59.632,AudTraining2,2021.2.3,Win32,144.0714594,,,,,,,,,,,,,,RegPatterns/03d-ms_1_3_4_2_2_unit270.mp3,3,2,0,2,0,1,,,,,,,,,,,,,,,,,,
,,,,,,,,,,,,,train15_audtrain2,2023-11-18_18h56.59.632,AudTraining2,2021.2.3,Win32,144.0714594,,,,,,,,,,RegPatterns/Noise.mp3,RegPatterns/Noise.mp3,,,,,,,,,,1,16.7258,,,,,,,,g,1.0662,0,0,0,0,1,,
,,,,,,,,,,,,,train15_audtrain2,2023-11-18_18h56.59.632,AudTraining2,2021.2.3,Win32,144.0714594,,,,,,,,,,,,,,,,,,,,,,,1,10,22,1,1,RegPatterns/03-ms_3_1_4_2_2_unit270.mp3,RegPatterns/03d-ms_1_3_4_2_2_unit270.mp3,,,,,,,,,
,,,,,,,,,,,,,train15_audtrain2,2023-11-18_18h56.59.632,AudTraining2,2021.2.3,Win32,144.0714594,,,,,,,,,,,,,,RegPatterns/19-ms_1_1_2_3_1_2_2_unit230.mp3,0,0,0,0,0,1,,,,,,,,,,,,,,,,,,
,,,,,,,,,,,,,train15_audtrain2,2023-11-18_18h56.59.632,AudTraining2,2021.2.3,Win32,144.0714594,,,,,,,,,,,,,,RegPatterns/19-ms_1_1_2_3_1_2_2_unit230.mp3,0,1,0,1,0,1,,,,,,,,,,,,,,,,,,
,,,,,,,,,,,,,train15_audtrain2,2023-11-18_18h56.59.632,AudTraining2,2021.2.3,Win32,144.0714594,,,,,,,,,,,,,,RegPatterns/19d-ms_1_1_2_1_3_2_2_unit230.mp3,3,2,0,2,0,1,,,,,,,,,,,,,,,,,,
,,,,,,,,,,,,,train15_audtrain2,2023-11-18_18h56.59.632,AudTraining2,2021.2.3,Win32,144.0714594,,,,,,,,,,,,,,,,,,,,,2,151.3302,1,11,23,7,1,RegPatterns/19-ms_1_1_2_3_1_2_2_unit230.mp3,RegPatterns/19d-ms_1_1_2_1_3_2_2_unit230.mp3,,,,,,,,,
,,,,,,,,,,,,,train15_audtrain2,2023-11-18_18h56.59.632,AudTraining2,2021.2.3,Win32,144.0714594,,,,,,,,,,,,,,RegPatterns/03-ms_3_1_4_2_2_unit270.mp3,0,0,0,0,0,1,,,,,,,,,,,,,,,,,,
,,,,,,,,,,,,,train15_audtrain2,2023-11-18_18h56.59.632,AudTraining2,2021.2.3,Win32,144.0714594,,,,,,,,,,,,,,RegPatterns/03d-ms_1_3_4_2_2_unit270.mp3,2,1,0,1,0,1,,,,,,,,,,,,,,,,,,
,,,,,,,,,,,,,train15_audtrain2,2023-11-18_18h56.59.632,AudTraining2,2021.2.3,Win32,144.0714594,,,,,,,,,,,,,,RegPatterns/03-ms_3_1_4_2_2_unit270.mp3,0,2,0,2,0,1,,,,,,,,,,,,,,,,,,
,,,,,,,,,,,,,train15_audtrain2,2023-11-18_18h56.59.632,AudTraining2,2021.2.3,Win32,144.0714594,,,,,,,,,,,,,,,,,,,,,3,1.4687,2,0,24,1,1,RegPatterns/03-ms_3_1_4_2_2_unit270.mp3,RegPatterns/03d-ms_1_3_4_2_2_unit270.mp3,,,,,,,,,
,,,,,,,,,,,,,train15_audtrain2,2023-11-18_18h56.59.632,AudTraining2,2021.2.3,Win32,144.0714594,,,,,,,,,,,,,,RegPatterns/14-ms_2_1_1_4_1_3_unit250.mp3,0,0,0,0,0,1,,,,,,,,,,,,,,,,,,
,,,,,,,,,,,,,train15_audtrain2,2023-11-18_18h56.59.632,AudTraining2,2021.2.3,Win32,144.0714594,,,,,,,,,,,,,,RegPatterns/14-ms_2_1_1_4_1_3_unit250.mp3,0,1,0,1,0,1,,,,,,,,,,,,,,,,,,
,,,,,,,,,,,,,train15_audtrain2,2023-11-18_18h56.59.632,AudTraining2,2021.2.3,Win32,144.0714594,,,,,,,,,,,,,,RegPatterns/14d-ms_2_1_1_4_3_1_unit250.mp3,3,2,0,2,0,1,,,,,,,,,,,,,,,,,,
,,,,,,,,,,,,,train15_audtrain2,2023-11-18_18h56.59.632,AudTraining2,2021.2.3,Win32,144.0714594,,,,,,,,,,,,,,,,,,,,,3,3.627,2,1,25,4,1,RegPatterns/14-ms_2_1_1_4_1_3_unit250.mp3,RegPatterns/14d-ms_2_1_1_4_3_1_unit250.mp3,,,,,,,,,
,,,,,,,,,,,,,train15_audtrain2,2023-11-18_18h56.59.632,AudTraining2,2021.2.3,Win32,144.0714594,,,,,,,,,,,,,,RegPatterns/19d-ms_1_1_2_1_3_2_2_unit230.mp3,1,0,0,0,0,1,,,,,,,,,,,,,,,,,,
,,,,,,,,,,,,,train15_audtrain2,2023-11-18_18h56.59.632,AudTraining2,2021.2.3,Win32,144.0714594,,,,,,,,,,,,,,RegPatterns/19-ms_1_1_2_3_1_2_2_unit230.mp3,0,1,0,1,0,1,,,,,,,,,,,,,,,,,,
,,,,,,,,,,,,,train15_audtrain2,2023-11-18_18h56.59.632,AudTraining2,2021.2.3,Win32,144.0714594,,,,,,,,,,,,,,RegPatterns/19-ms_1_1_2_3_1_2_2_unit230.mp3,0,2,0,2,0,1,,,,,,,,,,,,,,,,,,
,,,,,,,,,,,,,train15_audtrain2,2023-11-18_18h56.59.632,AudTraining2,2021.2.3,Win32,144.0714594,,,,,,,,,,,,,,,,,,,,,3,1.2943,2,2,26,7,1,RegPatterns/19-ms_1_1_2_3_1_2_2_unit230.mp3,RegPatterns/19d-ms_1_1_2_1_3_2_2_unit230.mp3,,,,,,,,,
,,,,,,,,,,,,,train15_audtrain2,2023-11-18_18h56.59.632,AudTraining2,2021.2.3,Win32,144.0714594,,,,,,,,,,,,,,RegPatterns/20-ms_2_1_1_2_2_3_1_unit230.mp3,0,0,0,0,0,1,,,,,,,,,,,,,,,,,,
,,,,,,,,,,,,,train15_audtrain2,2023-11-18_18h56.59.632,AudTraining2,2021.2.3,Win32,144.0714594,,,,,,,,,,,,,,RegPatterns/20-ms_2_1_1_2_2_3_1_unit230.mp3,0,1,0,1,0,1,,,,,,,,,,,,,,,,,,
,,,,,,,,,,,,,train15_audtrain2,2023-11-18_18h56.59.632,AudTraining2,2021.2.3,Win32,144.0714594,,,,,,,,,,,,,,RegPatterns/20d-ms_2_1_1_2_2_1_3_unit230.mp3,3,2,0,2,0,1,,,,,,,,,,,,,,,,,,
,,,,,,,,,,,,,train15_audtrain2,2023-11-18_18h56.59.632,AudTraining2,2021.2.3,Win32,144.0714594,,,,,,,,,,,,,,,,,,,,,2,0.8675,2,3,27,11,1,RegPatterns/20-ms_2_1_1_2_2_3_1_unit230.mp3,RegPatterns/20d-ms_2_1_1_2_2_1_3_unit230.mp3,,,,,,,,,
,,,,,,,,,,,,,train15_audtrain2,2023-11-18_18h56.59.632,AudTraining2,2021.2.3,Win32,144.0714594,,,,,,,,,,,,,,RegPatterns/26-ms_1_1_2_2_1_1_4_unit250.mp3,0,0,0,0,0,1,,,,,,,,,,,,,,,,,,
,,,,,,,,,,,,,train15_audtrain2,2023-11-18_18h56.59.632,AudTraining2,2021.2.3,Win32,144.0714594,,,,,,,,,,,,,,RegPatterns/26d-ms_1_1_2_1_1_2_4_unit250.mp3,2,1,0,1,0,1,,,,,,,,,,,,,,,,,,
,,,,,,,,,,,,,train15_audtrain2,2023-11-18_18h56.59.632,AudTraining2,2021.2.3,Win32,144.0714594,,,,,,,,,,,,,,RegPatterns/26-ms_1_1_2_2_1_1_4_unit250.mp3,0,2,0,2,0,1,,,,,,,,,,,,,,,,,,
,,,,,,,,,,,,,train15_audtrain2,2023-11-18_18h56.59.632,AudTraining2,2021.2.3,Win32,144.0714594,,,,,,,,,,,,,,,,,,,,,1,1.1045,2,4,28,8,1,RegPatterns/26-ms_1_1_2_2_1_1_4_unit250.mp3,RegPatterns/26d-ms_1_1_2_1_1_2_4_unit250.mp3,,,,,,,,,
,,,,,,,,,,,,,train15_audtrain2,2023-11-18_18h56.59.632,AudTraining2,2021.2.3,Win32,144.0714594,,,,,,,,,,,,,,RegPatterns/29-ms_3_1_2_1_1_1_3_unit250.mp3,0,0,0,0,0,1,,,,,,,,,,,,,,,,,,
,,,,,,,,,,,,,train15_audtrain2,2023-11-18_18h56.59.632,AudTraining2,2021.2.3,Win32,144.0714594,,,,,,,,,,,,,,RegPatterns/29-ms_3_1_2_1_1_1_3_unit250.mp3,0,1,0,1,0,1,,,,,,,,,,,,,,,,,,
,,,,,,,,,,,,,train15_audtrain2,2023-11-18_18h56.59.632,AudTraining2,2021.2.3,Win32,144.0714594,,,,,,,,,,,,,,RegPatterns/29d-ms_3_1_2_1_1_3_1_unit250.mp3,3,2,0,2,0,1,,,,,,,,,,,,,,,,,,
,,,,,,,,,,,,,train15_audtrain2,2023-11-18_18h56.59.632,AudTraining2,2021.2.3,Win32,144.0714594,,,,,,,,,,,,,,,,,,,,,3,0.9405,2,5,29,9,1,RegPatterns/29-ms_3_1_2_1_1_1_3_unit250.mp3,RegPatterns/29d-ms_3_1_2_1_1_3_1_unit250.mp3,,,,,,,,,
,,,,,,,,,,,,,train15_audtrain2,2023-11-18_18h56.59.632,AudTraining2,2021.2.3,Win32,144.0714594,,,,,,,,,,,,,,RegPatterns/12d-ms_3_1_3_1_2_2_unit270.mp3,1,0,0,0,0,1,,,,,,,,,,,,,,,,,,
,,,,,,,,,,,,,train15_audtrain2,2023-11-18_18h56.59.632,AudTraining2,2021.2.3,Win32,144.0714594,,,,,,,,,,,,,,RegPatterns/12-ms_3_1_1_3_2_2_unit270.mp3,0,1,0,1,0,1,,,,,,,,,,,,,,,,,,
,,,,,,,,,,,,,train15_audtrain2,2023-11-18_18h56.59.632,AudTraining2,2021.2.3,Win32,144.0714594,,,,,,,,,,,,,,RegPatterns/12-ms_3_1_1_3_2_2_unit270.mp3,0,2,0,2,0,1,,,,,,,,,,,,,,,,,,
,,,,,,,,,,,,,train15_audtrain2,2023-11-18_18h56.59.632,AudTraining2,2021.2.3,Win32,144.0714594,,,,,,,,,,,,,,,,,,,,,1,2552.9075,2,6,30,3,1,RegPatterns/12-ms_3_1_1_3_2_2_unit270.mp3,RegPatterns/12d-ms_3_1_3_1_2_2_unit270.mp3,,,,,,,,,
,,,,,,,,,,,,,train15_audtrain2,2023-11-18_18h56.59.632,AudTraining2,2021.2.3,Win32,144.0714594,,,,,,,,,,,,,,RegPatterns/16d-ms_3_1_2_2_3_1_unit230.mp3,1,0,0,0,0,1,,,,,,,,,,,,,,,,,,
,,,,,,,,,,,,,train15_audtrain2,2023-11-18_18h56.59.632,AudTraining2,2021.2.3,Win32,144.0714594,,,,,,,,,,,,,,RegPatterns/16-ms_3_1_2_2_1_3_unit230.mp3,0,1,0,1,0,1,,,,,,,,,,,,,,,,,,
,,,,,,,,,,,,,train15_audtrain2,2023-11-18_18h56.59.632,AudTraining2,2021.2.3,Win32,144.0714594,,,,,,,,,,,,,,RegPatterns/16-ms_3_1_2_2_1_3_unit230.mp3,0,2,0,2,0,1,,,,,,,,,,,,,,,,,,
,,,,,,,,,,,,,train15_audtrain2,2023-11-18_18h56.59.632,AudTraining2,2021.2.3,Win32,144.0714594,,,,,,,,,,,,,,,,,,,,,3,3.3586,2,7,31,5,1,RegPatterns/16-ms_3_1_2_2_1_3_unit230.mp3,RegPatterns/16d-ms_3_1_2_2_3_1_unit230.mp3,,,,,,,,,
,,,,,,,,,,,,,train15_audtrain2,2023-11-18_18h56.59.632,AudTraining2,2021.2.3,Win32,144.0714594,,,,,,,,,,,,,,RegPatterns/09-ms_2_1_1_1_3_4_unit270.mp3,0,0,0,0,0,1,,,,,,,,,,,,,,,,,,
,,,,,,,,,,,,,train15_audtrain2,2023-11-18_18h56.59.632,AudTraining2,2021.2.3,Win32,144.0714594,,,,,,,,,,,,,,RegPatterns/09d-ms_2_1_1_3_1_4_unit270.mp3,2,1,0,1,0,1,,,,,,,,,,,,,,,,,,
,,,,,,,,,,,,,train15_audtrain2,2023-11-18_18h56.59.632,AudTraining2,2021.2.3,Win32,144.0714594,,,,,,,,,,,,,,RegPatterns/09-ms_2_1_1_1_3_4_unit270.mp3,0,2,0,2,0,1,,,,,,,,,,,,,,,,,,
,,,,,,,,,,,,,train15_audtrain2,2023-11-18_18h56.59.632,AudTraining2,2021.2.3,Win32,144.0714594,,,,,,,,,,,,,,,,,,,,,3,6.7704,2,8,32,2,1,RegPatterns/09-ms_2_1_1_1_3_4_unit270.mp3,RegPatterns/09d-ms_2_1_1_3_1_4_unit270.mp3,,,,,,,,,
,,,,,,,,,,,,,train15_audtrain2,2023-11-18_18h56.59.632,AudTraining2,2021.2.3,Win32,144.0714594,,,,,,,,,,,,,,RegPatterns/18-ms_4_2_2_1_1_2_unit270.mp3,0,0,0,0,0,1,,,,,,,,,,,,,,,,,,
,,,,,,,,,,,,,train15_audtrain2,2023-11-18_18h56.59.632,AudTraining2,2021.2.3,Win32,144.0714594,,,,,,,,,,,,,,RegPatterns/18d-ms_4_2_2_2_1_1_unit270.mp3,2,1,0,1,0,1,,,,,,,,,,,,,,,,,,
,,,,,,,,,,,,,train15_audtrain2,2023-11-18_18h56.59.632,AudTraining2,2021.2.3,Win32,144.0714594,,,,,,,,,,,,,,RegPatterns/18-ms_4_2_2_1_1_2_unit270.mp3,0,2,0,2,0,1,,,,,,,,,,,,,,,,,,
,,,,,,,,,,,,,train15_audtrain2,2023-11-18_18h56.59.632,AudTraining2,2021.2.3,Win32,144.0714594,,,,,,,,,,,,,,,,,,,,,2,0.2078,2,9,33,6,1,RegPatterns/18-ms_4_2_2_1_1_2_unit270.mp3,RegPatterns/18d-ms_4_2_2_2_1_1_unit270.mp3,,,,,,,,,
,,,,,,,,,,,,,train15_audtrain2,2023-11-18_18h56.59.632,AudTraining2,2021.2.3,Win32,144.0714594,,,,,,,,,,,,,,RegPatterns/02-ms_3_1_4_1_3_unit250.mp3,0,0,0,0,0,1,,,,,,,,,,,,,,,,,,
,,,,,,,,,,,,,train15_audtrain2,2023-11-18_18h56.59.632,AudTraining2,2021.2.3,Win32,144.0714594,,,,,,,,,,,,,,RegPatterns/02d-ms_3_1_4_3_1_unit250.mp3,2,1,0,1,0,1,,,,,,,,,,,,,,,,,,
,,,,,,,,,,,,,train15_audtrain2,2023-11-18_18h56.59.632,AudTraining2,2021.2.3,Win32,144.0714594,,,,,,,,,,,,,,RegPatterns/02-ms_3_1_4_1_3_unit250.mp3,0,2,0,2,0,1,,,,,,,,,,,,,,,,,,
,,,,,,,,,,,,,train15_audtrain2,2023-11-18_18h56.59.632,AudTraining2,2021.2.3,Win32,144.0714594,,,,,,,,,,,,,,,,,,,,,3,1.1516,2,10,34,0,1,RegPatterns/02-ms_3_1_4_1_3_unit250.mp3,RegPatterns/02d-ms_3_1_4_3_1_unit250.mp3,,,,,,,,,
,,,,,,,,,,,,,train15_audtrain2,2023-11-18_18h56.59.632,AudTraining2,2021.2.3,Win32,144.0714594,,,,,,,,,,,,,,RegPatterns/30d-ms_1_3_2_2_1_1_2_unit230.mp3,1,0,0,0,0,1,,,,,,,,,,,,,,,,,,
,,,,,,,,,,,,,train15_audtrain2,2023-11-18_18h56.59.632,AudTraining2,2021.2.3,Win32,144.0714594,,,,,,,,,,,,,,RegPatterns/30-ms_3_1_2_2_1_1_2_unit230.mp3,0,1,0,1,0,1,,,,,,,,,,,,,,,,,,
,,,,,,,,,,,,,train15_audtrain2,2023-11-18_18h56.59.632,AudTraining2,2021.2.3,Win32,144.0714594,,,,,,,,,,,,,,RegPatterns/30-ms_3_1_2_2_1_1_2_unit230.mp3,0,2,0,2,0,1,,,,,,,,,,,,,,,,,,
,,,,,,,,,,,,,train15_audtrain2,2023-11-18_18h56.59.632,AudTraining2,2021.2.3,Win32,144.0714594,,,,,,,,,,,,,,,,,,,,,3,0.396,2,11,35,10,1,RegPatterns/30-ms_3_1_2_2_1_1_2_unit230.mp3,RegPatterns/30d-ms_1_3_2_2_1_1_2_unit230.mp3,,,,,,,,,
,,,,,,,,,,,,,train15_audtrain2,2023-11-18_18h56.59.632,AudTraining2,2021.2.3,Win32,144.0714594,,,,,,,,,,,,,,,,,,,,,,,,,,,,,,,,,,,,,space,2.6864
